# fs_hz=500.0 n=2048
ax,ay,az,gx,gy,gz
-0.218445,-0.190186,-1.481201,22.6524,0.2134,7.1646
-0.217529,-0.189392,-1.480164,23.0793,-0.3354,7.1951
-0.215088,-0.186646,-1.476562,23.9634,-1.4329,7.2561
-0.211548,-0.182312,-1.470764,25.2744,-2.9878,7.3476
-0.206665,-0.176147,-1.462402,27.1341,-5.2744,7.4085
-0.200317,-0.167969,-1.451172,29.3293,-7.9878,7.4390
-0.191650,-0.156433,-1.434631,31.8598,-11.0976,7.4390
-0.181274,-0.142395,-1.414062,34.6646,-14.5427,7.3780
-0.169128,-0.125610,-1.389160,37.8354,-18.4756,7.1951
-0.155029,-0.105530,-1.358154,40.7317,-22.1037,6.9207
-0.140381,-0.084351,-1.324646,43.3232,-25.4268,6.5244
-0.124756,-0.061646,-1.288147,45.6707,-28.5061,6.0366
-0.108276,-0.037476,-1.248779,47.4695,-30.9756,5.5488
-0.090149,-0.010193,-1.204224,48.8720,-33.1098,5.0305
-0.072510,0.017273,-1.159607,49.8476,-34.8171,4.6037
-0.054932,0.045898,-1.113647,50.3963,-36.1280,4.2378
-0.037354,0.077393,-1.064270,50.3963,-36.8293,4.0549
-0.021973,0.108337,-1.017151,49.9390,-37.1037,3.9634
-0.008240,0.139954,-0.970520,48.8720,-36.7683,4.0244
0.003296,0.173584,-0.922913,47.3476,-35.8841,4.2073
0.012207,0.207092,-0.877014,45.3963,-34.5427,4.4817
0.017456,0.238281,-0.836121,42.8659,-32.5000,4.7866
0.020081,0.268372,-0.798035,40.0000,-30.0000,5.0305
0.019958,0.298035,-0.762451,36.7988,-27.1037,5.2439
0.017212,0.323914,-0.733276,33.3232,-23.7805,5.3354
0.013000,0.347778,-0.708191,29.3598,-19.8780,5.2744
0.007263,0.370056,-0.687317,25.3354,-15.8537,5.0000
0.000854,0.388306,-0.673035,21.1585,-11.6159,4.5732
-0.005920,0.404358,-0.663208,16.5549,-7.0122,3.9024
-0.012817,0.418091,-0.657837,12.1037,-2.6220,3.0488
-0.020325,0.429565,-0.657532,7.5915,1.7378,2.0732
-0.027649,0.437561,-0.662231,3.0488,6.0061,0.9756
-0.035217,0.443054,-0.670532,-1.7378,10.2439,-0.3049
-0.043518,0.445007,-0.683716,-6.2805,14.0244,-1.6159
-0.051636,0.443054,-0.700134,-10.7927,17.5305,-2.9573
-0.059998,0.437683,-0.719116,-15.4573,20.8841,-4.3598
-0.068481,0.428772,-0.740295,-19.7866,23.6890,-5.6707
-0.077332,0.414551,-0.764648,-24.0549,26.1890,-6.9207
-0.085449,0.396484,-0.789368,-28.2622,28.3841,-8.0488
-0.093079,0.374878,-0.815002,-32.5610,30.2439,-9.1159
-0.100159,0.347717,-0.842346,-36.5244,31.6463,-9.9085
-0.105957,0.318054,-0.868225,-40.3659,32.7134,-10.5488
-0.110901,0.285645,-0.893616,-44.2378,33.4146,-10.9451
-0.114929,0.248474,-0.919434,-47.7134,33.7195,-11.0671
-0.118164,0.209473,-0.944519,-51.0061,33.6890,-10.9451
-0.120239,0.170715,-0.967346,-54.1159,33.3537,-10.5183
-0.121704,0.131348,-0.989380,-56.9207,32.7134,-9.8780
-0.122803,0.089783,-1.011597,-59.1768,31.7988,-9.0244
-0.123535,0.050903,-1.031738,-61.0366,30.7012,-7.9878
-0.124207,0.013062,-1.051392,-62.3781,29.2683,-6.6768
-0.125122,-0.024780,-1.071411,-63.0488,27.7134,-5.3049
-0.126221,-0.058350,-1.089783,-63.2012,26.0061,-3.8720
-0.127686,-0.089966,-1.107544,-62.6220,24.0854,-2.3171
-0.129639,-0.119507,-1.124695,-61.3415,22.1646,-0.8232
-0.132263,-0.148071,-1.141846,-59.4817,20.1524,0.6402
-0.135193,-0.172668,-1.157166,-57.0122,18.1402,2.0427
-0.138367,-0.195374,-1.171509,-53.6585,16.0061,3.4146
-0.141663,-0.216797,-1.185303,-49.7866,13.9939,4.6037
-0.144714,-0.234741,-1.196838,-45.3963,12.0122,5.7317
-0.147339,-0.250610,-1.206970,-40.1829,9.9695,6.7378
-0.149475,-0.264404,-1.215576,-34.6951,8.1098,7.5915
-0.150696,-0.275879,-1.222412,-28.9024,6.3110,8.3537
-0.151001,-0.283691,-1.226685,-22.8049,4.5732,8.9939
-0.150513,-0.288818,-1.229126,-16.1280,2.8659,9.5427
-0.149231,-0.290466,-1.229248,-9.6037,1.3110,9.9695
-0.147522,-0.288513,-1.226929,-3.0183,-0.1220,10.2744
-0.145569,-0.283813,-1.222595,3.9024,-1.5549,10.4573
-0.143433,-0.276428,-1.216125,10.4573,-2.8049,10.4878
-0.141052,-0.265198,-1.206604,16.8598,-3.9634,10.4268
-0.138672,-0.251404,-1.195129,23.1402,-5.0610,10.2439
-0.135986,-0.235229,-1.181763,29.4512,-6.1280,9.9085
-0.132690,-0.215454,-1.165405,35.0915,-7.0427,9.4512
-0.129028,-0.194214,-1.147827,40.4268,-7.8963,8.9024
-0.124695,-0.171204,-1.128723,45.5183,-8.7195,8.1707
-0.118835,-0.145081,-1.107117,49.8171,-9.4207,7.3476
-0.111877,-0.117676,-1.084534,53.6281,-10.0915,6.4939
-0.104126,-0.090515,-1.062134,57.0122,-10.6707,5.5793
-0.095703,-0.062683,-1.039062,59.8171,-11.1890,4.6341
-0.086365,-0.032593,-1.013916,61.7988,-11.5854,3.8110
-0.077271,-0.003662,-0.989563,63.2317,-11.8598,3.0183
-0.068420,0.025513,-0.964966,64.0244,-12.0122,2.3476
-0.060059,0.056396,-0.938965,64.0549,-12.0122,1.8293
-0.053406,0.085571,-0.914368,63.5366,-11.8598,1.4329
-0.048157,0.114502,-0.890015,62.2866,-11.4634,1.1280
-0.044617,0.143127,-0.866150,60.4573,-10.8841,0.9451
-0.043091,0.172485,-0.841919,58.1402,-10.0915,0.8232
-0.043579,0.199463,-0.820068,55.3659,-9.0854,0.6707
-0.045654,0.225647,-0.799316,51.8598,-7.7134,0.4878
-0.049316,0.251892,-0.778992,48.0488,-6.1585,0.2134
-0.054138,0.275269,-0.761353,43.9024,-4.4207,-0.1524
-0.059692,0.297485,-0.745117,39.0854,-2.3476,-0.7317
-0.065674,0.318298,-0.730408,34.2073,-0.2134,-1.4329
-0.071899,0.338135,-0.717163,29.0549,2.0122,-2.3171
-0.077576,0.354736,-0.706848,23.6890,4.3293,-3.3537
-0.082764,0.369202,-0.698303,17.8659,6.7683,-4.6037
-0.087158,0.381165,-0.691711,12.1646,9.0549,-5.9451
-0.090271,0.389160,-0.687805,6.3720,11.2805,-7.3476
-0.092468,0.394348,-0.685730,0.2134,13.4756,-8.9024
-0.093750,0.396667,-0.685425,-5.6098,15.3963,-10.4268
-0.094177,0.395447,-0.687378,-11.4024,17.1951,-11.9207
-0.093750,0.390930,-0.691467,-17.1341,18.8415,-13.3537
-0.092957,0.384216,-0.697449,-22.9573,20.3659,-14.7561
-0.092285,0.375122,-0.706177,-28.2622,21.6463,-15.9756
-0.092163,0.365173,-0.716553,-33.2927,22.8049,-17.0732
-0.092957,0.354858,-0.728516,-38.2012,23.9024,-18.1402
-0.095337,0.344543,-0.743225,-42.4390,24.7866,-19.0244
-0.099060,0.334900,-0.759521,-46.2195,25.6402,-19.8780
-0.104492,0.327026,-0.776794,-49.6646,26.4939,-20.7317
-0.111511,0.320374,-0.795105,-52.5915,27.2866,-21.6463
-0.120544,0.314636,-0.815430,-54.8171,28.0183,-22.5305
-0.130615,0.309937,-0.835510,-56.5854,28.7500,-23.5366
-0.141235,0.304871,-0.856079,-57.9268,29.4817,-24.7561
-0.152100,0.296875,-0.878540,-58.7500,30.1220,-26.0976
-0.161560,0.286255,-0.900513,-59.2683,30.7622,-27.5305
-0.169739,0.271790,-0.923157,-59.5427,31.3110,-29.1463
-0.176208,0.252747,-0.946533,-59.5427,31.7378,-30.7012
-0.180481,0.226074,-0.972351,-59.4207,32.0427,-32.1951
-0.182190,0.194153,-0.997864,-59.2073,32.2256,-33.5366
-0.182129,0.157227,-1.024292,-58.8720,32.1646,-34.6646
-0.180176,0.112732,-1.052856,-58.4146,31.8902,-35.3659
-0.176697,0.065796,-1.080444,-57.8963,31.4024,-35.7317
-0.172485,0.016479,-1.108154,-57.1341,30.5793,-35.5488
-0.167847,-0.034424,-1.135742,-56.2195,29.5122,-34.9085
-0.162659,-0.088257,-1.164124,-55.0915,28.2012,-33.8415
-0.157593,-0.138550,-1.190125,-53.7195,26.6768,-32.4085
-0.152588,-0.187012,-1.215088,-51.7988,24.7256,-30.4573
-0.147339,-0.234497,-1.239685,-49.5732,22.5915,-28.2622
-0.142395,-0.275513,-1.261230,-46.9512,20.2439,-25.8232
-0.137512,-0.312439,-1.281006,-43.5671,17.5305,-23.0793
-0.132568,-0.344910,-1.298645,-39.7561,14.7256,-20.3354
-0.127380,-0.372681,-1.313965,-35.5183,11.7988,-17.5610
-0.122437,-0.392578,-1.325256,-30.7927,8.7805,-14.8171
-0.117493,-0.407166,-1.333618,-25.2134,5.5488,-11.9817
-0.112183,-0.415588,-1.338501,-19.4207,2.4695,-9.4512
-0.107056,-0.416992,-1.339233,-13.2317,-0.5793,-7.0427
-0.101990,-0.413208,-1.337097,-6.3110,-3.6585,-4.6951
-0.096619,-0.402832,-1.331116,0.5793,-6.4024,-2.6829
-0.091309,-0.387634,-1.322266,7.6829,-8.9634,-0.8841
-0.086487,-0.367859,-1.310730,15.3049,-11.4024,0.7317
-0.081787,-0.344360,-1.296997,22.9878,-13.5976,2.1037
-0.076965,-0.315735,-1.280334,30.2744,-15.3659,3.0793
-0.072510,-0.285400,-1.262695,37.4695,-16.8902,3.8415
-0.068115,-0.253479,-1.244019,44.7866,-18.1707,4.2988
-0.063477,-0.218994,-1.223389,51.4024,-19.0854,4.4817
-0.059143,-0.185791,-1.202942,57.6220,-19.7256,4.4207
-0.054810,-0.152954,-1.182007,63.5366,-20.1524,4.2073
-0.050354,-0.120911,-1.160828,68.4451,-20.2744,3.8415
-0.045349,-0.088684,-1.138367,72.7439,-20.2134,3.4146
-0.040466,-0.059814,-1.116943,76.3720,-19.9695,2.9878
-0.035400,-0.032410,-1.095520,79.2073,-19.4817,2.6220
-0.030029,-0.004639,-1.072815,81.0061,-18.8415,2.3780
-0.024902,0.020752,-1.051392,82.0122,-18.0183,2.2561
-0.020081,0.046082,-1.030334,82.1646,-17.0122,2.2866
-0.015686,0.071594,-1.009644,81.4024,-15.8841,2.5000
-0.012207,0.099243,-0.988403,80.0000,-14.6646,2.8354
-0.010132,0.126282,-0.968933,77.9878,-13.3232,3.2927
-0.009399,0.154114,-0.949951,75.1524,-11.8293,3.7805
-0.010376,0.184265,-0.930969,71.7988,-10.3354,4.2988
-0.013062,0.213440,-0.914124,68.0183,-8.8110,4.7866
-0.017090,0.242737,-0.898438,63.5366,-7.1951,5.2134
-0.022217,0.271790,-0.883972,58.8415,-5.6098,5.4573
-0.028748,0.301392,-0.870728,53.8415,-4.0549,5.6098
-0.035767,0.328247,-0.860168,48.5976,-2.5610,5.5793
-0.043152,0.353821,-0.851318,42.7744,-1.0061,5.3354
-0.050964,0.378357,-0.844360,37.0122,0.3963,4.9085
-0.058350,0.399231,-0.840088,31.0976,1.7073,4.2988
-0.065430,0.417725,-0.837769,24.6951,3.0183,3.4451
-0.072388,0.433594,-0.837952,18.5366,4.1159,2.4695
-0.078857,0.446350,-0.840210,12.3171,5.1220,1.4024
-0.084351,0.454651,-0.844788,5.7927,6.0976,0.1220
-0.089294,0.459656,-0.851257,-0.6707,6.9512,-1.1890
-0.093933,0.460571,-0.860413,-6.7073,7.6220,-2.4695
-0.097717,0.457520,-0.871155,-12.5610,8.2317,-3.7500
-0.101074,0.451599,-0.883240,-18.4756,8.7805,-5.0610
-0.104370,0.442200,-0.897522,-23.7805,9.1768,-6.2500
-0.107239,0.430542,-0.912109,-28.8110,9.5122,-7.3476
-0.110107,0.417358,-0.927307,-33.7500,9.7866,-8.4756
-0.112976,0.403076,-0.942810,-38.0183,9.9390,-9.4512
-0.116028,0.387085,-0.959229,-41.9512,10.0610,-10.3659
-0.118835,0.371460,-0.974609,-45.5793,10.1220,-11.2805
-0.121704,0.355774,-0.989746,-49.0244,10.0915,-12.1951
-0.124573,0.339050,-1.005005,-51.8902,10.0305,-13.0793
-0.127258,0.322876,-1.018799,-54.4817,9.8780,-13.9329
-0.129639,0.305786,-1.032043,-56.8598,9.6341,-14.8476
-0.131592,0.287292,-1.044800,-58.8110,9.3598,-15.7012
-0.132629,0.264832,-1.057922,-60.5488,8.9939,-16.4634
-0.132751,0.240417,-1.069946,-62.0427,8.5976,-17.1646
-0.132019,0.212646,-1.081787,-63.3537,8.0793,-17.7134
-0.129883,0.178284,-1.094116,-64.3293,7.5000,-17.9878
-0.126587,0.140869,-1.105835,-65.0915,6.8598,-18.0183
-0.122131,0.099792,-1.117676,-65.6402,6.0976,-17.6524
-0.116821,0.055542,-1.129639,-65.8232,5.3354,-16.9207
-0.110413,0.005859,-1.142273,-65.7927,4.4817,-15.8537
-0.103943,-0.043701,-1.154114,-65.3354,3.5366,-14.2683
-0.097473,-0.093994,-1.165894,-64.5122,2.5305,-12.3476
-0.091309,-0.146606,-1.177979,-63.2927,1.5244,-10.1220
-0.086182,-0.195251,-1.189148,-61.6159,0.4573,-7.6220
-0.082092,-0.241821,-1.200012,-59.2073,-0.7317,-4.7561
-0.079285,-0.286804,-1.210693,-56.2805,-1.8902,-1.8293
-0.077881,-0.327820,-1.220703,-52.7744,-3.1098,1.1585
-0.078125,-0.361389,-1.229126,-48.2622,-4.3902,4.3598
-0.079529,-0.389832,-1.236572,-43.2012,-5.6402,7.3171
-0.082031,-0.412170,-1.242493,-37.5305,-6.8902,10.1829
-0.085327,-0.425781,-1.246155,-31.2195,-8.1402,12.8354
-0.088989,-0.433167,-1.247925,-23.8415,-9.4512,15.3354
-0.092590,-0.432861,-1.247009,-16.2195,-10.6098,17.3476
-0.095825,-0.425293,-1.243347,-8.1707,-11.7683,19.0549
-0.098389,-0.412476,-1.237427,0.7317,-12.8659,20.3354
-0.100159,-0.395081,-1.229309,9.4207,-13.7805,21.0976
-0.100952,-0.372192,-1.217773,18.2317,-14.6037,21.4939
-0.100708,-0.346619,-1.204163,27.0122,-15.3049,21.5549
-0.099670,-0.318909,-1.188660,36.1280,-15.8537,21.1890
-0.097534,-0.288391,-1.170166,44.5122,-16.2195,20.5183
-0.094543,-0.258728,-1.150879,52.5915,-16.3720,19.6037
-0.090820,-0.229187,-1.130554,60.5183,-16.3415,18.4451
-0.086304,-0.200012,-1.109375,67.4390,-16.0976,17.2256
-0.080688,-0.170044,-1.086243,73.7805,-15.7012,15.9451
-0.074402,-0.142334,-1.063843,79.5122,-15.1524,14.6646
-0.067505,-0.115234,-1.041443,84.6341,-14.3598,13.4146
-0.059509,-0.086853,-1.018127,88.5976,-13.4146,12.3476
-0.051514,-0.060120,-0.996582,91.8293,-12.3476,11.4024
-0.043640,-0.033020,-0.975403,94.2683,-11.0671,10.6098
-0.036194,-0.005188,-0.954590,95.6707,-9.7256,10.0610
-0.029602,0.025818,-0.933350,96.3415,-8.2927,9.6037
-0.024658,0.056946,-0.914246,96.1890,-6.6768,9.2683
-0.021301,0.089722,-0.895996,95.3049,-5.0000,9.0244
-0.020020,0.126526,-0.877991,93.7195,-3.3537,8.8110
-0.021240,0.163330,-0.862305,91.4939,-1.6768,8.5671
-0.024231,0.201416,-0.847839,88.4451,0.0305,8.1707
-0.029541,0.242920,-0.834412,84.9085,1.6463,7.6524
-0.036377,0.285217,-0.822632,80.8537,3.2012,6.9817
-0.044373,0.325806,-0.813354,76.0061,4.7256,5.9756
-0.053345,0.366394,-0.805542,70.8841,6.0671,4.7256
-0.063599,0.408386,-0.799316,65.3354,7.2866,3.2317
-0.073669,0.446838,-0.795227,59.4512,8.3841,1.4939
-0.083679,0.483276,-0.792480,52.8049,9.3598,-0.7012
-0.093506,0.517883,-0.791443,46.0976,10.1220,-3.0488
-0.101868,0.546448,-0.792114,39.1159,10.7622,-5.6098
-0.108887,0.570374,-0.794250,31.4024,11.2195,-8.5366
-0.114380,0.589111,-0.797729,23.8110,11.4939,-11.4634
-0.117859,0.601135,-0.803223,16.0366,11.6768,-14.4512
-0.118958,0.605042,-0.809998,8.1098,11.7378,-17.4085
-0.118408,0.603088,-0.817810,-0.4268,11.6768,-20.3963
-0.116333,0.594543,-0.827332,-8.5671,11.5549,-23.0488
-0.112915,0.580688,-0.837463,-16.7378,11.3415,-25.5183
-0.108948,0.563477,-0.848083,-25.3354,11.0976,-27.8354
-0.104919,0.544006,-0.859131,-33.3537,10.8232,-29.6951
-0.101135,0.522156,-0.871094,-41.2195,10.5183,-31.3415
-0.098267,0.501038,-0.882751,-48.9329,10.1829,-32.7439
-0.096191,0.480530,-0.894775,-56.7073,9.8476,-34.0244
-0.095215,0.460632,-0.907837,-63.7500,9.5427,-35.0305
-0.095459,0.443542,-0.920532,-70.4268,9.2073,-35.9756
-0.096680,0.427979,-0.933533,-76.9817,8.9024,-36.9207
-0.098816,0.413452,-0.946838,-82.6829,8.5671,-37.8354
-0.102051,0.397888,-0.961243,-87.9573,8.2622,-38.8110
-0.105774,0.381958,-0.975220,-92.9878,7.9268,-39.8780
-0.109375,0.363403,-0.989502,-97.5305,7.5915,-40.9756
-0.112305,0.337952,-1.005188,-101.3415,7.2561,-42.0122
-0.113953,0.307739,-1.020630,-104.7256,6.8902,-42.9573
-0.114319,0.271484,-1.036621,-107.7744,6.4329,-43.7195
-0.112671,0.224609,-1.054260,-110.1829,5.9451,-44.1159
-0.109436,0.171082,-1.072327,-112.2256,5.4268,-44.1463
-0.104370,0.112671,-1.090210,-113.8415,4.7561,-43.5671
-0.098022,0.049438,-1.108582,-114.8781,3.9939,-42.3476
-0.090332,-0.021423,-1.128357,-115.4573,3.1707,-40.6098
-0.082336,-0.091370,-1.147461,-115.5183,2.2561,-38.3232
-0.074402,-0.161682,-1.166565,-114.8476,1.1280,-35.2134
-0.066956,-0.234192,-1.186462,-113.4451,-0.0305,-31.6768
-0.060913,-0.300415,-1.204834,-111.3415,-1.3110,-27.7744
-0.056152,-0.363037,-1.222656,-108.0488,-2.7744,-23.2927
-0.052856,-0.421143,-1.239685,-103.8720,-4.2073,-18.8110
-0.051514,-0.475037,-1.256104,-98.8110,-5.7317,-14.2378
-0.052429,-0.518494,-1.270020,-92.7744,-7.2561,-9.7256
-0.055115,-0.555054,-1.281982,-85.1220,-8.8720,-5.1220
-0.059814,-0.583984,-1.291504,-76.7073,-10.3354,-1.0366
-0.065918,-0.601990,-1.297180,-67.3781,-11.7683,2.7744
-0.072815,-0.612366,-1.299866,-56.5244,-13.1402,6.2500
-0.080017,-0.615234,-1.299316,-45.3354,-14.2988,9.0549
-0.087219,-0.609070,-1.294373,-33.5976,-15.3354,11.3720
-0.093506,-0.594727,-1.285400,-21.4329,-16.1890,13.2317
-0.098938,-0.574524,-1.273071,-8.2622,-16.8293,14.5122
-0.102966,-0.546814,-1.256165,4.4207,-17.2256,15.1220
-0.105042,-0.515137,-1.236633,17.0732,-17.4085,15.2439
-0.105591,-0.480408,-1.214905,30.1220,-17.3476,14.8476
-0.104492,-0.443604,-1.191406,42.1341,-17.0427,13.9634
-0.101257,-0.403442,-1.164856,53.6585,-16.5244,12.8049
-0.096558,-0.364746,-1.138062,65.0000,-15.7317,11.2500
-0.090393,-0.326477,-1.110413,75.6098,-14.7561,9.5732
-0.082214,-0.287292,-1.080750,84.6951,-13.5976,7.8659
-0.072815,-0.251465,-1.052185,92.9268,-12.2866,6.1890
-0.062134,-0.216553,-1.023682,100.2744,-10.7622,4.6037
-0.049377,-0.180298,-0.993896,106.0061,-9.1768,3.2927
-0.035889,-0.144226,-0.964355,110.6402,-7.5000,2.2561
-0.022461,-0.109985,-0.936951,114.0549,-5.6707,1.5549
-0.009216,-0.074768,-0.910339,115.9146,-3.9024,1.3110
0.003357,-0.035706,-0.883789,116.6463,-2.1341,1.3720
0.013367,0.003479,-0.860168,116.2500,-0.3963,1.7378
0.020996,0.044495,-0.838013,114.4817,1.4024,2.4085
0.024841,0.089783,-0.816895,111.5549,3.0793,3.2622
0.024292,0.134216,-0.799072,107.7134,4.6951,4.1768
0.020447,0.179382,-0.783203,102.5610,6.4024,5.0915
0.013367,0.224609,-0.769653,96.7683,7.9878,5.7927
0.002747,0.271362,-0.758484,90.3049,9.6037,6.3110
-0.010010,0.314392,-0.750916,83.3232,11.2500,6.5549
-0.024048,0.355591,-0.746033,75.3963,13.0183,6.4024
-0.039429,0.395691,-0.744385,67.4390,14.7256,5.8537
-0.054077,0.430176,-0.746155,59.2073,16.4634,5.0000
-0.068054,0.461243,-0.750732,50.2744,18.2012,3.7195
-0.081238,0.488525,-0.758057,41.6463,19.8171,2.1646
-0.093628,0.511963,-0.769348,32.9573,21.3110,0.4268
-0.103943,0.528809,-0.783203,24.2378,22.6524,-1.4634
-0.113037,0.541138,-0.799255,15.0915,23.8110,-3.5976
-0.121033,0.548218,-0.818481,6.4939,24.6341,-5.7012
-0.127136,0.549377,-0.838562,-1.9817,25.1829,-7.8049
-0.132080,0.546387,-0.859680,-10.6707,25.4573,-9.9390
-0.136108,0.539734,-0.881287,-18.6585,25.3659,-11.8598
-0.139282,0.528992,-0.904053,-26.3415,25.0305,-13.6890
-0.141418,0.515808,-0.925232,-34.0854,24.3902,-15.3963
-0.143005,0.501221,-0.945618,-41.4634,23.5671,-17.0122
-0.144287,0.485107,-0.965698,-47.9878,22.5610,-18.3841
-0.145142,0.469360,-0.983154,-54.1768,21.4634,-19.6341
-0.145996,0.453857,-0.999329,-60.1524,20.1829,-20.8841
-0.146912,0.438110,-1.014648,-65.3049,18.9024,-22.0122
-0.147705,0.422668,-1.028625,-70.0305,17.6220,-23.1098
-0.148193,0.408142,-1.040283,-74.5122,16.2500,-24.2988
-0.148499,0.392944,-1.050964,-78.2622,14.9695,-25.4268
-0.148010,0.374756,-1.061279,-81.6463,13.7195,-26.5549
-0.146729,0.354797,-1.070312,-84.6951,12.5000,-27.6524
-0.144470,0.331543,-1.079163,-87.5305,11.2500,-28.6890
-0.140503,0.301575,-1.088440,-89.8476,10.0915,-29.5122
-0.135193,0.267700,-1.097412,-91.9207,8.9634,-30.1220
-0.128784,0.229126,-1.106750,-93.8415,7.8049,-30.3659
-0.121521,0.185852,-1.116577,-95.4268,6.7378,-30.1524
-0.113098,0.135132,-1.127563,-96.7988,5.7012,-29.5427
-0.104675,0.082581,-1.138550,-97.9268,4.6341,-28.4451
-0.096375,0.027588,-1.150024,-98.7195,3.5671,-26.6768
-0.088257,-0.031738,-1.162537,-99.0549,2.5610,-24.3598
-0.081482,-0.088379,-1.174805,-98.9634,1.5549,-21.6159
-0.075745,-0.143921,-1.187195,-98.1402,0.4878,-18.2317
-0.071228,-0.197510,-1.199463,-96.6463,-0.5488,-14.5732
-0.068054,-0.249878,-1.211975,-94.4512,-1.5854,-10.7012
-0.066650,-0.294983,-1.223450,-91.4634,-2.6220,-6.7073
-0.066528,-0.335632,-1.234436,-87.2256,-3.7500,-2.4695
-0.067993,-0.371399,-1.244690,-82.0732,-4.7866,1.4939
-0.070679,-0.398071,-1.252869,-76.0366,-5.8537,5.2439
-0.074402,-0.418579,-1.259399,-68.4756,-6.9512,8.8415
-0.078918,-0.432556,-1.263916,-60.1829,-7.9573,11.8293
-0.084351,-0.438599,-1.265564,-51.0671,-8.9024,14.3598
-0.089905,-0.436157,-1.264099,-40.4878,-9.8171,16.4329
-0.095459,-0.427490,-1.260010,-29.2378,-10.6098,17.9573
-0.100830,-0.411133,-1.251953,-17.8963,-11.2500,18.7805
-0.105408,-0.389160,-1.240845,-6.1280,-11.7378,19.0854
-0.109192,-0.363037,-1.227051,6.5244,-12.0732,18.7500
-0.111572,-0.331665,-1.209351,18.6280,-12.1951,17.8659
-0.112305,-0.298035,-1.189514,30.6402,-12.1341,16.5854
-0.110901,-0.264404,-1.168335,42.9268,-11.8902,14.8780
-0.107422,-0.230469,-1.145569,54.0854,-11.4329,12.9878
-0.100891,-0.195435,-1.119751,64.6037,-10.8841,11.0061
-0.092163,-0.163208,-1.093811,74.4207,-10.1829,9.0549
-0.081421,-0.131958,-1.067017,83.5366,-9.3598,7.2561
-0.068604,-0.100159,-1.038513,90.9451,-8.4756,5.7927
-0.055359,-0.071228,-1.011414,97.2561,-7.5305,4.6646
-0.042236,-0.042603,-0.984619,102.3171,-6.4634,3.9329
-0.029968,-0.013977,-0.958435,105.6098,-5.3963,3.6585
-0.019226,0.016968,-0.932068,107.6829,-4.2073,3.6890
-0.011719,0.047241,-0.908813,108.5671,-2.9573,3.9329
-0.006775,0.078613,-0.887268,108.0488,-1.4634,4.3293
-0.005188,0.113220,-0.867371,106.2500,0.0915,4.7561
-0.007080,0.147461,-0.851135,103.5366,1.7988,5.1524
-0.011353,0.182678,-0.837219,99.6037,3.7500,5.4268
-0.017822,0.218567,-0.825745,94.9390,5.7012,5.4878
-0.026672,0.257080,-0.817078,89.6646,7.6829,5.3354
-0.036865,0.293884,-0.812134,83.8415,9.6341,5.0000
-0.047913,0.330750,-0.809631,77.0732,11.5854,4.3293
-0.060120,0.368713,-0.810059,70.1220,13.2317,3.4146
-0.072021,0.403320,-0.813232,62.7744,14.6951,2.3171
-0.083740,0.436035,-0.818359,54.6037,15.8841,0.8537
-0.095032,0.466003,-0.825439,46.4329,16.7073,-0.7622
-0.105835,0.492676,-0.835083,38.0183,17.2256,-2.5610
-0.114929,0.512878,-0.846069,28.8720,17.4390,-4.6037
-0.122864,0.528198,-0.858337,19.5427,17.4085,-6.7683
-0.129700,0.537292,-0.872375,10.5488,17.1037,-8.8720
-0.134644,0.539062,-0.886658,1.5244,16.6159,-10.9756
-0.138428,0.535583,-0.901489,-7.9573,15.9451,-13.1402
-0.141052,0.525879,-0.917603,-16.7988,15.1220,-15.0915
-0.142517,0.511902,-0.934082,-25.4878,14.2683,-16.9207
-0.142822,0.494324,-0.949890,-34.2683,13.2622,-18.5976
-0.142578,0.474365,-0.965698,-42.2256,12.2866,-20.0000
-0.141663,0.451477,-0.982056,-49.8171,11.2500,-21.2500
-0.140381,0.428467,-0.997192,-56.9512,10.2134,-22.3171
-0.138855,0.405029,-1.011780,-63.9024,9.0854,-23.2622
-0.136902,0.379883,-1.026428,-69.8781,8.0183,-23.9939
-0.134705,0.355713,-1.039368,-75.3963,6.9512,-24.6037
-0.132202,0.330933,-1.051575,-80.5488,5.8232,-25.1524
-0.129395,0.304993,-1.062927,-84.8171,4.7561,-25.5793
-0.125488,0.274963,-1.074036,-88.6585,3.6585,-25.8537
-0.120911,0.243774,-1.083923,-92.0732,2.5915,-26.0366
-0.115479,0.209595,-1.093445,-95.1220,1.4939,-25.9756
-0.108582,0.169189,-1.103210,-97.5610,0.4268,-25.6098
-0.101013,0.127014,-1.112305,-99.6341,-0.6402,-24.9695
-0.092957,0.081848,-1.121216,-101.3415,-1.7073,-23.8110
-0.084534,0.034119,-1.130005,-102.4695,-2.7439,-22.2256
-0.075867,-0.018066,-1.139160,-103.2317,-3.7195,-20.2134
-0.067993,-0.068726,-1.147644,-103.5671,-4.6951,-17.7744
-0.060913,-0.119080,-1.155884,-103.2012,-5.6707,-14.7256
-0.054749,-0.170227,-1.164307,-102.1646,-6.5549,-11.3720
-0.050171,-0.216125,-1.171814,-100.4573,-7.4085,-7.7744
-0.046692,-0.259033,-1.178955,-97.6220,-8.2622,-3.8110
-0.044189,-0.298218,-1.185547,-93.9634,-9.0244,0.0610
-0.042786,-0.333618,-1.191650,-89.4207,-9.7561,3.8720
-0.042542,-0.360962,-1.196350,-83.3841,-10.4573,7.6829
-0.043213,-0.382690,-1.199829,-76.3720,-11.0671,11.2195
-0.044983,-0.397461,-1.201294,-68.5366,-11.6159,14.2073
-0.047607,-0.403748,-1.200439,-59.8476,-12.0427,16.8293
-0.050720,-0.403625,-1.197510,-49.5732,-12.3476,18.9329
-0.054321,-0.395569,-1.191650,-38.8415,-12.5305,20.3659
-0.058105,-0.381531,-1.183411,-27.4695,-12.5610,21.2805
-0.061707,-0.361450,-1.172729,-14.8171,-12.4085,21.5549
-0.065002,-0.336914,-1.159790,-2.2866,-12.0427,21.1585
-0.067566,-0.306763,-1.143494,10.5183,-11.5549,20.3049
-0.069031,-0.274719,-1.125793,23.4146,-10.8841,18.9939
-0.069397,-0.241272,-1.106689,36.9207,-9.9695,17.1341
-0.067810,-0.205322,-1.084961,49.5122,-8.9024,14.9695
-0.064270,-0.170959,-1.063110,61.7378,-7.6829,12.5915
-0.058899,-0.137085,-1.040527,73.8415,-6.2500,10.0000
-0.051636,-0.103943,-1.017456,84.5122,-4.7561,7.5305
-0.041626,-0.070007,-0.992737,94.2988,-3.1707,5.1829
-0.030457,-0.038757,-0.969238,103.1098,-1.5244,3.0488
-0.018677,-0.007690,-0.945984,110.9146,0.2439,1.2195
-0.007080,0.025513,-0.922180,116.8598,1.9512,-0.1220
0.002502,0.057434,-0.900513,121.4939,3.7195,-1.1280
0.009766,0.090027,-0.879822,124.6951,5.5793,-1.8293
0.014221,0.123291,-0.860474,126.0976,7.4085,-2.1951
0.014526,0.158997,-0.842529,126.2195,9.2683,-2.4390
0.010498,0.193359,-0.828247,125.1524,11.1890,-2.6220
0.003357,0.227783,-0.816467,122.6220,13.2622,-2.8659
-0.007324,0.263428,-0.807861,118.9024,15.3049,-3.2317
-0.019897,0.296448,-0.803406,114.2683,17.3780,-3.7805
-0.033569,0.328613,-0.802063,108.4146,19.5427,-4.5732
-0.047852,0.359863,-0.803894,101.9512,21.4939,-5.5793
-0.062988,0.391663,-0.809875,94.9390,23.3232,-6.7988
-0.077271,0.420593,-0.819214,86.8598,24.9390,-8.2927
-0.091064,0.448303,-0.831116,78.3232,26.3110,-9.9695
-0.104675,0.475159,-0.846558,69.7561,27.1951,-11.7378
-0.116455,0.497864,-0.863831,60.8232,27.7439,-13.6585
-0.127014,0.517578,-0.882874,51.0671,27.8049,-15.7927
-0.136475,0.533386,-0.904663,41.4939,27.3476,-17.8659
-0.144714,0.544739,-0.927612,31.7988,26.5244,-20.0000
-0.150879,0.549805,-0.950256,21.4329,25.1524,-22.1951
-0.155884,0.549988,-0.973267,11.5549,23.4756,-24.2073
-0.159973,0.544128,-0.997437,1.7073,21.5244,-26.0976
-0.162537,0.533020,-1.019958,-8.0488,19.3293,-27.8963
-0.164246,0.518188,-1.041626,-18.1098,16.7988,-29.5427
-0.165039,0.498901,-1.063171,-27.3780,14.2073,-30.9146
-0.165161,0.477600,-1.082214,-36.4024,11.5549,-32.1037
-0.164612,0.454773,-1.100159,-45.5183,8.7195,-33.1098
-0.163635,0.430847,-1.116943,-53.7805,5.9756,-33.8720
-0.161804,0.404297,-1.133301,-61.6768,3.2622,-34.4512
-0.159241,0.377563,-1.147522,-69.2073,0.5793,-34.9085
-0.155945,0.349121,-1.161194,-76.6463,-2.2256,-35.1829
-0.151428,0.315247,-1.175232,-83.2012,-4.8476,-35.2439
-0.146057,0.279175,-1.188049,-89.3293,-7.4085,-35.0915
-0.139343,0.239136,-1.200684,-95.2439,-10.0915,-34.6341
-0.131165,0.194702,-1.213196,-100.3049,-12.5610,-33.8415
-0.120422,0.141968,-1.226013,-104.9390,-15.0000,-32.7134
-0.108582,0.086182,-1.237915,-109.1159,-17.3780,-31.1585
-0.095642,0.026367,-1.249451,-112.9268,-19.8476,-28.8720
-0.081116,-0.040527,-1.260681,-115.9146,-22.1037,-26.0976
-0.066833,-0.106567,-1.270447,-118.3232,-24.2988,-22.7744
-0.052856,-0.173035,-1.279358,-120.0305,-26.5549,-18.6585
-0.039673,-0.238831,-1.287231,-120.7622,-28.5671,-14.1463
-0.027710,-0.305298,-1.294128,-120.6707,-30.4878,-9.2988
-0.018433,-0.364685,-1.299072,-119.2683,-32.4085,-3.9024
-0.011108,-0.419373,-1.302795,-116.7378,-34.2073,1.6463
-0.006104,-0.468933,-1.304688,-112.8963,-35.7317,6.9512
-0.003906,-0.507019,-1.304504,-107.7134,-37.1646,12.1341
-0.003662,-0.536804,-1.302307,-100.4268,-38.4146,17.1646
-0.005615,-0.555969,-1.296875,-91.7073,-39.4207,21.4634
-0.009033,-0.565186,-1.288818,-81.5549,-40.2134,25.2134
-0.013794,-0.562195,-1.278076,-68.9939,-40.7317,28.2927
-0.019104,-0.549866,-1.264648,-55.4268,-40.9451,30.3659
-0.024719,-0.525635,-1.247009,-40.6402,-40.8841,31.6768
-0.029663,-0.492554,-1.226990,-24.8171,-40.5488,32.2256
-0.034058,-0.453064,-1.204529,-7.0732,-39.8171,31.7683
-0.037415,-0.405762,-1.177917,10.5488,-38.7805,30.4573
-0.039307,-0.356689,-1.150085,28.5366,-37.4390,28.4756
-0.040039,-0.306152,-1.120422,47.5305,-35.6402,25.6707
-0.039490,-0.255371,-1.089111,65.3659,-33.5976,22.4085
-0.037048,-0.203308,-1.054382,82.6829,-31.2805,18.8110
-0.032898,-0.156372,-1.020142,99.3293,-28.6890,15.0000
-0.027039,-0.112549,-0.985168,115.5488,-25.6707,10.8841
-0.018555,-0.070923,-0.948181,129.5122,-22.5305,7.0427
-0.008484,-0.035767,-0.913330,142.1342,-19.2378,3.4146
0.002930,-0.003906,-0.879456,153.3537,-15.5793,0.0610
0.015198,0.025024,-0.846802,161.9817,-11.9817,-2.5915
0.027527,0.052673,-0.814636,168.9025,-8.3232,-4.7256
0.038269,0.076477,-0.786621,174.0244,-4.6037,-6.3110
0.046753,0.099243,-0.761108,177.1646,-0.6402,-7.2866
0.051758,0.122925,-0.738037,177.9878,3.0793,-7.5305
0.052429,0.145325,-0.719910,177.1951,6.7683,-7.4085
0.049500,0.168091,-0.704956,174.4512,10.6707,-6.8598
0.043091,0.191406,-0.693420,170.1219,14.2988,-6.0671
0.032593,0.216736,-0.685974,164.6646,17.8659,-5.2134
0.019348,0.241394,-0.683533,157.6524,21.5549,-4.3293
0.004272,0.266357,-0.684875,149.7866,25.1220,-3.5671
-0.013062,0.292969,-0.690918,141.4634,28.3841,-3.0183
-0.030579,0.318298,-0.700928,132.6219,31.4329,-2.6829
-0.048523,0.343384,-0.714172,122.8049,34.3598,-2.5915
-0.067688,0.369263,-0.732117,113.1098,36.7683,-2.8049
-0.086792,0.394409,-0.752808,103.1707,38.8110,-3.2317
-0.104675,0.417053,-0.775269,92.4695,40.3963,-3.9634
-0.122009,0.438171,-0.799316,82.1646,41.3415,-4.9390
-0.139038,0.457458,-0.825867,71.7378,41.7988,-6.0976
-0.153748,0.472473,-0.851868,61.2500,41.7683,-7.4390
-0.166748,0.484070,-0.877991,50.1220,41.0976,-9.0549
-0.177734,0.490906,-0.904663,39.5732,39.8476,-10.7012
-0.185425,0.491943,-0.928650,29.0549,38.1707,-12.3780
-0.190674,0.488281,-0.951172,18.0793,35.9451,-14.1463
-0.193420,0.479736,-0.972107,7.8049,33.4756,-15.7622
-0.193298,0.464661,-0.991943,-2.2866,30.7622,-17.2561
-0.190369,0.445068,-1.008484,-12.1646,27.8963,-18.5671
-0.185730,0.422058,-1.023254,-22.2866,24.7561,-19.6646
-0.179321,0.394531,-1.036865,-31.5549,21.7378,-20.4268
-0.172180,0.366028,-1.047974,-40.5183,18.7500,-20.9451
-0.164612,0.336609,-1.058044,-49.4817,15.7012,-21.1585
-0.157104,0.306946,-1.067261,-57.5305,12.8963,-21.0671
-0.149475,0.276001,-1.076111,-65.1524,10.2134,-20.7622
-0.142700,0.247070,-1.083862,-72.3171,7.6524,-20.3049
-0.136292,0.218384,-1.091431,-79.2988,5.1220,-19.6341
-0.129578,0.187378,-1.099243,-85.3049,2.8659,-18.8415
-0.123047,0.157288,-1.106567,-90.8537,0.7317,-17.9573
-0.116089,0.125977,-1.113953,-96.1281,-1.3720,-16.8293
-0.107971,0.090332,-1.121887,-100.5793,-3.2012,-15.6098
-0.099182,0.052246,-1.130005,-104.6037,-4.9390,-14.2073
-0.090088,0.012817,-1.138000,-108.3537,-6.6159,-12.4390
-0.080444,-0.029419,-1.146118,-111.6768,-8.2012,-10.3659
-0.069702,-0.077087,-1.154907,-114.3598,-9.6037,-8.0183
-0.058960,-0.124512,-1.163452,-116.6463,-10.9451,-5.3354
-0.048279,-0.172974,-1.171997,-118.5061,-12.2256,-1.9817
-0.037354,-0.223877,-1.181274,-119.6951,-13.3841,1.6463
-0.027588,-0.271423,-1.190125,-120.4268,-14.4817,5.6402
-0.018738,-0.316895,-1.199036,-120.4573,-15.5793,10.2744
-0.010864,-0.359314,-1.208008,-119.7256,-16.5854,14.9695
-0.004578,-0.398193,-1.217407,-118.3232,-17.5305,19.8476
-0.000793,-0.428589,-1.226013,-116.1585,-18.4451,24.7866
0.000793,-0.452820,-1.234131,-112.7134,-19.3598,29.8780
-0.000671,-0.468933,-1.241333,-108.2927,-20.1524,34.5122
-0.005310,-0.474854,-1.246643,-102.8659,-20.8841,38.8415
-0.012329,-0.472839,-1.250000,-95.7012,-21.5549,42.7439
-0.021667,-0.462708,-1.251221,-87.5000,-22.1037,45.7622
-0.033569,-0.441895,-1.248901,-78.2317,-22.5610,48.0793
-0.046265,-0.413025,-1.243286,-67.8963,-22.8659,49.6341
-0.059204,-0.377930,-1.234863,-55.7317,-23.0793,50.2439
-0.071777,-0.334717,-1.222351,-43.1402,-23.0793,49.7561
-0.082336,-0.288757,-1.207214,-29.8476,-22.9878,48.5061
-0.090820,-0.240540,-1.189758,-15.2134,-22.7134,46.1890
-0.096985,-0.191406,-1.170166,-0.9146,-22.2561,43.1402
-0.100281,-0.140625,-1.146973,13.5061,-21.7073,39.5427
-0.100281,-0.094299,-1.122620,27.8049,-21.0061,35.4878
-0.097961,-0.050293,-1.096558,42.4390,-20.0610,30.8537
-0.092834,-0.007751,-1.067139,55.7317,-18.9939,26.2195
-0.085754,0.028625,-1.037598,68.3232,-17.8049,21.5549
-0.077332,0.061768,-1.007141,80.3659,-16.3110,16.8293
-0.067383,0.093262,-0.974426,90.5793,-14.7256,12.5610
-0.056824,0.122314,-0.941589,99.6037,-12.9573,8.5671
-0.046509,0.147583,-0.910767,107.5000,-10.8537,4.8780
-0.036499,0.171692,-0.880981,114.0244,-8.5976,1.5854
-0.027222,0.196533,-0.851685,118.5671,-6.2805,-1.0366
-0.019897,0.219788,-0.826294,121.7683,-3.7805,-3.2317
-0.014465,0.243469,-0.803284,123.4146,-1.0061,-5.0610
-0.011780,0.269531,-0.782715,123.3537,1.7378,-6.3415
-0.012329,0.295166,-0.766724,122.0427,4.5732,-7.3476
-0.015503,0.321838,-0.753845,119.1768,7.5915,-8.1402
-0.021362,0.349426,-0.744202,115.0610,10.4268,-8.6890
-0.030823,0.379578,-0.738098,109.9390,13.2317,-9.2073
-0.042664,0.408936,-0.736389,103.9329,15.9146,-9.7256
-0.056458,0.438477,-0.737793,96.5244,18.5671,-10.4268
-0.072510,0.468567,-0.743225,88.5366,20.8232,-11.2500
-0.088745,0.495605,-0.752075,79.9390,22.8659,-12.2561
-0.104919,0.520386,-0.763916,70.1220,24.6341,-13.5976
-0.120483,0.542053,-0.778442,60.2134,25.9451,-15.0610
-0.135193,0.559570,-0.797119,49.9390,26.8902,-16.7073
-0.147339,0.570679,-0.817566,39.2988,27.4695,-18.4451
-0.157593,0.576904,-0.839722,27.8049,27.5610,-20.3354
-0.165894,0.577148,-0.864258,16.6768,27.1646,-22.1037
-0.171265,0.571289,-0.888306,5.4268,26.4024,-23.8110
-0.174805,0.561157,-0.912292,-6.4634,25.1220,-25.3963
-0.176758,0.547363,-0.935730,-17.7439,23.5061,-26.7378
-0.177185,0.529297,-0.959229,-28.9329,21.5549,-27.8659
-0.176331,0.509338,-0.979980,-39.9695,19.3598,-28.7805
-0.174622,0.487976,-0.999329,-51.4024,16.7378,-29.5122
-0.172241,0.464111,-1.017822,-61.9512,14.0549,-30.0000
-0.169312,0.440369,-1.033630,-72.2256,11.2500,-30.3354
-0.166077,0.415527,-1.048218,-82.6220,8.1707,-30.4878
-0.162109,0.387024,-1.062134,-92.0122,5.2134,-30.5183
-0.157349,0.355835,-1.075012,-100.9756,2.2561,-30.3963
-0.151794,0.322571,-1.085999,-109.8781,-0.7927,-30.0915
-0.144958,0.285278,-1.096375,-118.2622,-3.8110,-29.5732
-0.135620,0.239563,-1.107056,-125.6098,-6.5244,-28.8415
-0.124817,0.189880,-1.116821,-132.4695,-9.1768,-27.8049
-0.112488,0.134766,-1.126587,-138.9939,-11.7683,-26.2195
-0.097839,0.070312,-1.136780,-144.5122,-14.0549,-24.1768
-0.082703,0.003784,-1.146484,-149.4512,-16.1890,-21.6463
-0.067200,-0.065369,-1.156128,-153.8415,-18.2317,-18.2317
-0.052063,-0.135742,-1.165649,-157.2256,-19.9695,-14.3293
-0.037537,-0.209167,-1.175293,-159.8781,-21.5549,-9.9085
-0.025574,-0.276855,-1.184082,-161.7988,-22.9878,-5.0000
-0.015442,-0.341187,-1.192505,-162.6829,-24.2988,0.6707
-0.007751,-0.402588,-1.200989,-162.4390,-25.3963,6.4329
-0.003296,-0.453857,-1.208618,-161.2195,-26.3720,12.3476
-0.001221,-0.498474,-1.215942,-158.4451,-27.2256,18.5976
-0.001587,-0.536011,-1.222778,-154.3598,-27.8963,24.4207
-0.005066,-0.565430,-1.228943,-149.0244,-28.4756,30.0000
-0.011292,-0.583435,-1.233582,-142.3781,-28.9634,35.2134
-0.019592,-0.593018,-1.236694,-133.5366,-29.3293,40.0915
-0.030701,-0.591919,-1.237244,-123.4756,-29.5427,43.9634
-0.042847,-0.580444,-1.234924,-112.0427,-29.6341,47.1646
-0.055725,-0.560913,-1.229797,-98.3232,-29.6037,49.5427
-0.068665,-0.533752,-1.221680,-83.8720,-29.4207,50.7927
-0.081421,-0.496887,-1.209290,-68.4451,-29.0854,51.1890
-0.092468,-0.454834,-1.193848,-52.1951,-28.5976,50.7317
-0.101929,-0.408752,-1.175598,-34.2378,-27.8354,49.2073
-0.109375,-0.357422,-1.153076,-16.6463,-26.8902,46.7683
-0.113708,-0.306946,-1.128906,1.1585,-25.7317,43.6585
-0.115601,-0.256714,-1.103027,19.8780,-24.2378,39.6341
-0.114563,-0.205688,-1.073975,37.3780,-22.5305,35.2134
-0.111084,-0.156860,-1.043762,54.4512,-20.5793,30.4268
-0.105042,-0.113831,-1.013855,71.5854,-18.2622,25.1524
-0.096802,-0.073853,-0.983215,87.8354,-15.7317,19.7561
-0.085632,-0.035767,-0.950684,102.0732,-13.0488,14.6951
-0.072876,-0.003357,-0.919861,115.1524,-10.2134,9.7561
-0.058838,0.026550,-0.889526,127.2561,-6.9817,4.9695
-0.043579,0.055786,-0.858765,137.0122,-3.6890,0.8537
-0.029053,0.081665,-0.830933,145.3354,-0.2744,-2.8354
-0.015442,0.107056,-0.804749,152.1342,3.5061,-6.0671
-0.003357,0.132568,-0.780457,156.6768,7.1951,-8.5061
0.006470,0.160522,-0.758179,159.7561,10.9756,-10.4878
0.012573,0.188354,-0.740540,161.3719,14.8171,-12.0427
0.015747,0.217590,-0.726013,161.2805,18.8720,-13.2317
0.014893,0.250427,-0.715210,159.5427,22.6829,-13.9329
0.010071,0.283264,-0.709229,156.6159,26.4634,-14.4512
0.002319,0.317261,-0.706665,152.1037,30.3049,-14.8780
-0.008118,0.352051,-0.707458,146.5549,33.7805,-15.2134
-0.021790,0.389038,-0.712891,140.0915,37.0427,-15.5793
-0.036987,0.423950,-0.722046,132.8354,40.0610,-16.0671
-0.053284,0.457886,-0.734131,124.2073,42.8659,-16.7378
-0.070984,0.491333,-0.750305,115.2134,45.0915,-17.5915
-0.087708,0.520020,-0.768860,105.6098,46.9207,-18.6280
-0.103638,0.545349,-0.789734,94.8171,48.2622,-19.9390
-0.118347,0.566650,-0.812805,83.9939,48.9634,-21.3415
-0.131531,0.582703,-0.839478,72.7744,49.1463,-22.8354
-0.141663,0.591492,-0.866516,61.2500,48.8415,-24.3902
-0.149597,0.594666,-0.894409,48.7500,47.8354,-26.0366
-0.154907,0.590637,-0.924133,36.7073,46.2805,-27.5305
-0.156921,0.579895,-0.952393,24.5732,44.2378,-28.8720
-0.156860,0.564209,-0.979980,11.7683,41.5854,-30.0305
-0.154480,0.542419,-1.007263,-0.2439,38.5976,-30.8537
-0.150574,0.517151,-1.032837,-12.1341,35.3049,-31.4329
-0.145447,0.489746,-1.054749,-24.3293,31.5549,-31.6463
-0.139587,0.460815,-1.074463,-36.2500,27.6220,-31.5549
-0.133118,0.429382,-1.092590,-47.1037,23.7195,-31.1585
-0.126953,0.399170,-1.107178,-57.5610,19.8171,-30.5183
-0.120911,0.368958,-1.119873,-67.9573,15.7012,-29.6341
-0.114624,0.336853,-1.131226,-77.1951,11.8598,-28.5976
-0.108765,0.306030,-1.140259,-85.8841,8.1707,-27.4695
-0.102661,0.274353,-1.148438,-94.2683,4.4512,-26.1585
-0.096069,0.241089,-1.155945,-101.4939,1.1280,-24.8171
-0.088318,0.202881,-1.163452,-108.1098,-1.9512,-23.3537
-0.080200,0.163330,-1.170288,-114.0854,-4.8476,-21.7988
-0.071411,0.120789,-1.177124,-119.6037,-7.5915,-19.9085
-0.061401,0.072021,-1.184326,-124.0244,-9.9390,-17.8354
-0.051270,0.022522,-1.191223,-127.8049,-12.0427,-15.4573
-0.041016,-0.028687,-1.198059,-130.9451,-13.9634,-12.5305
-0.031006,-0.080811,-1.204895,-133.1098,-15.5183,-9.3293
-0.021179,-0.135071,-1.211731,-134.5732,-16.9207,-5.7927
-0.012817,-0.185059,-1.217712,-135.3354,-18.1098,-1.9512
-0.005554,-0.232483,-1.223206,-135.1524,-19.1463,2.4390
0.000488,-0.277588,-1.228149,-133.9939,-19.9390,6.8293
0.004578,-0.314880,-1.231873,-131.9817,-20.6098,11.2805
0.007141,-0.346741,-1.234680,-128.6281,-21.1280,15.9146
0.008057,-0.372803,-1.236389,-124.2378,-21.4634,20.1220
0.006897,-0.391724,-1.236267,-118.7805,-21.6768,24.0854
0.003845,-0.401367,-1.234253,-111.6463,-21.7378,27.7439
-0.000671,-0.403992,-1.230469,-103.3232,-21.6768,30.9146
-0.007019,-0.397644,-1.223633,-94.1159,-21.4329,33.2622
-0.014221,-0.383179,-1.214478,-83.8110,-21.0671,35.0000
-0.021729,-0.362610,-1.203186,-71.6768,-20.4878,35.9451
-0.029175,-0.334106,-1.188721,-59.0549,-19.7561,36.0061
-0.035767,-0.300842,-1.172302,-45.7012,-18.9024,35.3963
-0.040894,-0.264587,-1.154541,-30.8232,-17.7744,33.8720
-0.044617,-0.225891,-1.135315,-16.0976,-16.5549,31.6159
-0.046448,-0.183716,-1.113037,-1.1280,-15.1524,28.8415
-0.045959,-0.143311,-1.090454,13.9634,-13.5976,25.5488
-0.043762,-0.103577,-1.066772,29.6951,-11.7378,21.6463
-0.039490,-0.063904,-1.040771,44.2988,-9.7866,17.5305
-0.033630,-0.028809,-1.015137,58.3841,-7.6829,13.2927
-0.026672,0.003418,-0.989075,72.3171,-5.2134,8.8110
-0.018555,0.032471,-0.962646,84.4817,-2.6829,4.6341
-0.008667,0.058838,-0.934998,95.6098,0.0305,0.6402
0.001709,0.079651,-0.909363,105.6098,2.8963,-3.0183
0.012512,0.097351,-0.884644,114.4512,6.1280,-6.3415
0.023865,0.112427,-0.860413,121.1585,9.3598,-8.9634
0.034241,0.123596,-0.839417,126.4939,12.7439,-11.0366
0.043762,0.132935,-0.820496,130.3049,16.4634,-12.5000
0.052002,0.140991,-0.804016,132.1646,20.0915,-13.2317
0.058228,0.148743,-0.790649,132.7134,23.8110,-13.4451
0.061646,0.155701,-0.781921,132.0427,27.5610,-13.1707
0.062683,0.163025,-0.776794,129.9085,31.4634,-12.3780
0.060486,0.171692,-0.776489,126.6159,35.1220,-11.1890
0.055298,0.180969,-0.781128,122.4695,38.6890,-9.7561
0.047668,0.191040,-0.789429,117.2561,42.2256,-8.0793
0.037842,0.201904,-0.801331,111.6159,45.3049,-6.4329
0.025146,0.213867,-0.818054,105.5183,48.1098,-4.8171
0.011047,0.225525,-0.837585,98.7195,50.6402,-3.2927
-0.004028,0.237061,-0.859497,91.6768,52.7744,-1.9207
-0.020630,0.248352,-0.885132,84.7866,54.2683,-0.8841
-0.036682,0.257935,-0.911377,77.8049,55.3354,-0.0305
-0.052490,0.266296,-0.938721,70.3354,55.8232,0.5488
-0.068237,0.273193,-0.968384,63.2012,55.6707,0.8537
-0.083008,0.278381,-0.998352,56.0976,55.0305,1.0061
-0.095642,0.281067,-1.026672,48.6281,53.7195,0.9451
-0.106995,0.281860,-1.054321,41.6159,51.8598,0.7317
-0.117188,0.279968,-1.082092,34.6646,49.5427,0.4268
-0.125000,0.275574,-1.106750,27.8354,46.8598,0.0610
-0.131287,0.268860,-1.129578,20.7927,43.5671,-0.3354
-0.136169,0.258606,-1.150940,14.2683,40.0610,-0.7012
-0.139038,0.245911,-1.168396,7.8963,36.3415,-1.0366
-0.140625,0.230591,-1.183655,1.4024,32.1951,-1.2805
-0.140869,0.212830,-1.196716,-4.4817,28.1402,-1.4024
-0.139465,0.190674,-1.208069,-10.1524,24.0244,-1.3720
-0.136414,0.166870,-1.216370,-15.5488,19.9390,-1.1890
-0.132019,0.141052,-1.222900,-20.9146,15.6707,-0.7317
-0.125732,0.111938,-1.227661,-25.6098,11.7378,-0.0915
-0.118286,0.082947,-1.230225,-29.9695,7.9268,0.7317
-0.109863,0.053406,-1.231323,-34.1463,4.1463,1.8293
-0.100586,0.023865,-1.230835,-37.6524,0.7622,3.1098
-0.090210,-0.006348,-1.228210,-40.7927,-2.4390,4.5122
-0.079712,-0.033630,-1.223633,-43.5671,-5.4573,6.0671
-0.069214,-0.059143,-1.217346,-46.0061,-8.3232,7.8049
-0.058044,-0.083252,-1.208557,-47.8659,-10.7622,9.5122
-0.047729,-0.103088,-1.198120,-49.3293,-12.9878,11.2805
-0.037476,-0.120056,-1.185974,-50.3659,-15.0000,13.0793
-0.027527,-0.133911,-1.171997,-50.8537,-16.5854,14.7561
-0.017212,-0.144165,-1.154907,-50.9146,-17.9268,16.3110
-0.007629,-0.149658,-1.136597,-50.4268,-18.9634,17.8049
0.001953,-0.151917,-1.116821,-49.4512,-19.6951,19.1159
0.012329,-0.150330,-1.094299,-47.8963,-20.0305,20.1829
0.022339,-0.145264,-1.071228,-45.8232,-20.0305,21.0671
0.032654,-0.137634,-1.046997,-42.8659,-19.6341,21.7378
0.044006,-0.127014,-1.020081,-39.3902,-18.8415,22.1646
0.055847,-0.114624,-0.992310,-35.2744,-17.7134,22.4085
0.067444,-0.101074,-0.965088,-30.1829,-16.0671,22.5000
0.079224,-0.086670,-0.937195,-24.6646,-14.0854,22.3780
0.091431,-0.070374,-0.906921,-18.6280,-11.7378,22.1341
0.102417,-0.054138,-0.877563,-12.1951,-9.0549,21.7683
0.112671,-0.037415,-0.847900,-4.9390,-5.7927,21.2500
0.122131,-0.019348,-0.816956,2.2561,-2.2561,20.6098
0.129639,-0.002014,-0.788147,9.6037,1.5854,19.9085
0.135803,0.015381,-0.760254,17.3780,6.0366,19.0244
0.140686,0.032776,-0.733887,24.6341,10.6402,18.0793
0.143860,0.050842,-0.708923,31.6768,15.4878,17.0732
0.145081,0.067505,-0.688538,38.4451,20.5793,16.0366
0.144897,0.083557,-0.671387,45.0000,26.1890,14.8476
0.142639,0.099243,-0.658142,50.6402,31.6768,13.6890
0.138611,0.112854,-0.650330,55.7622,37.2561,12.5610
0.133240,0.125366,-0.646667,60.3049,43.1098,11.3415
0.126465,0.137024,-0.647400,63.8415,48.6281,10.2439
0.117859,0.148132,-0.653931,66.7073,53.9939,9.1463
0.108337,0.157471,-0.665649,68.9329,59.1768,8.1098
0.098022,0.166077,-0.681580,70.4268,64.2683,7.0732
0.086182,0.174377,-0.703430,71.0976,68.6890,6.1280
0.074280,0.181641,-0.728760,71.1890,72.7439,5.2439
0.061829,0.188416,-0.757324,70.6098,76.4024,4.3293
0.048828,0.194702,-0.788635,69.4512,79.2683,3.5061
0.034363,0.200439,-0.824646,67.8354,81.6463,2.6829
0.019958,0.204956,-0.861206,65.6707,83.3841,1.7988
0.005066,0.208679,-0.899231,63.1098,84.5732,0.8841
-0.011047,0.211243,-0.940613,60.2744,84.9695,0.0305
-0.026550,0.212341,-0.980530,57.1341,84.8171,-0.8841
-0.041992,0.212219,-1.020752,53.4756,83.9024,-1.8902
-0.057678,0.210205,-1.062988,49.6646,82.3781,-2.8659
-0.072693,0.206604,-1.104675,45.6402,80.3049,-3.8720
-0.085815,0.201050,-1.143311,41.0976,77.4695,-4.9695
-0.097961,0.193665,-1.180542,36.5854,74.1768,-5.9756
-0.109192,0.183228,-1.217468,31.8902,70.4878,-6.9817
-0.118347,0.170837,-1.249939,27.1037,66.3720,-7.8963
-0.126282,0.156555,-1.280151,21.9512,61.5549,-8.7805
-0.133179,0.139343,-1.308777,17.0732,56.5854,-9.4817
-0.138123,0.121216,-1.332703,12.2561,51.3110,-10.0610
-0.141724,0.102112,-1.354187,7.3476,45.4573,-10.4878
-0.144104,0.082214,-1.373108,2.9573,39.6646,-10.7622
-0.144714,0.060974,-1.389954,-1.1890,33.7195,-10.8841
-0.143677,0.040955,-1.402771,-5.0305,27.6524,-10.9146
-0.141113,0.021362,-1.413086,-8.6280,21.2195,-10.7927
-0.136536,0.001709,-1.420227,-11.5549,15.0915,-10.5793
-0.130432,-0.015808,-1.423462,-14.0549,8.9939,-10.2744
-0.122986,-0.032349,-1.423706,-16.1280,2.7134,-9.8780
-0.114319,-0.047668,-1.420715,-17.5610,-3.0488,-9.4512
-0.103516,-0.062012,-1.413086,-18.6280,-8.6280,-8.9939
-0.091919,-0.073608,-1.401428,-19.2988,-13.9634,-8.5671
-0.079285,-0.083496,-1.386230,-19.5427,-19.2378,-8.1098
-0.064758,-0.091431,-1.365479,-19.3902,-23.8110,-7.7134
-0.049927,-0.096680,-1.341492,-18.9634,-28.0488,-7.3780
-0.034363,-0.099854,-1.314209,-18.2622,-31.9817,-7.0732
-0.018005,-0.101135,-1.283752,-17.3476,-35.1524,-6.8598
-0.000061,-0.099976,-1.248108,-16.3110,-37.9268,-6.7073
0.017456,-0.096741,-1.211304,-15.0610,-40.1829,-6.5549
0.035156,-0.092041,-1.172363,-13.7195,-41.9817,-6.4329
0.053772,-0.085632,-1.129028,-12.3476,-43.0488,-6.2805
0.071228,-0.078064,-1.086365,-10.8841,-43.6280,-6.1280
0.088257,-0.069458,-1.042969,-9.2683,-43.6280,-5.8537
0.105286,-0.059143,-0.997253,-7.6524,-43.0488,-5.5183
0.121277,-0.047791,-0.951782,-6.0061,-42.0122,-5.0915
0.135071,-0.036011,-0.909302,-4.2378,-40.3354,-4.5732
0.147217,-0.023254,-0.867859,-2.5305,-38.2012,-3.9939
0.157654,-0.008606,-0.826294,-0.8537,-35.6707,-3.3537
0.165039,0.006409,-0.789429,0.8232,-32.7744,-2.7439
0.170227,0.022034,-0.755005,2.5305,-29.2378,-2.1037
0.172729,0.038818,-0.722229,4.1159,-25.4878,-1.5244
0.172241,0.054932,-0.694702,5.6098,-21.4024,-1.0366
0.169556,0.070801,-0.670349,7.0427,-16.7683,-0.6707
0.164917,0.086121,-0.649414,8.2927,-12.0427,-0.4268
0.158020,0.101135,-0.632141,9.4207,-7.1646,-0.3354
0.149719,0.114075,-0.620667,10.3659,-2.1341,-0.3354
0.140686,0.125671,-0.613281,11.1585,3.2927,-0.4878
0.130615,0.136108,-0.611267,11.7073,8.4451,-0.7927
0.120544,0.144226,-0.614685,12.0122,13.5671,-1.1890
0.110413,0.151001,-0.622498,12.1037,18.7805,-1.7378
0.100037,0.156433,-0.634460,11.9207,23.5366,-2.3171
0.088562,0.160522,-0.652405,11.5549,28.0183,-2.9573
0.077148,0.162781,-0.674011,11.0061,32.1951,-3.6280
0.065125,0.163757,-0.698853,10.1829,36.1585,-4.3598
0.051514,0.162903,-0.728638,9.1768,39.3902,-5.0610
0.037659,0.160156,-0.760010,8.0488,42.2256,-5.7317
0.023254,0.155701,-0.793518,6.6768,44.6037,-6.4329
0.008545,0.149475,-0.828613,5.2134,46.2805,-7.0732
-0.006958,0.140259,-0.867371,3.6585,47.4695,-7.6524
-0.021423,0.129028,-0.905212,1.8902,48.1098,-8.2317
-0.035461,0.115845,-0.943542,0.0610,48.2317,-8.7195
-0.049561,0.099670,-0.984131,-1.7683,47.7439,-9.1463
-0.062012,0.082520,-1.022583,-3.5976,46.8293,-9.5122
-0.073730,0.064331,-1.060486,-5.5488,45.2439,-9.8171
-0.085266,0.044434,-1.099182,-7.3171,43.1707,-10.0305
-0.096130,0.024109,-1.136597,-9.0244,40.7317,-10.2134
-0.105591,0.004700,-1.170288,-10.6402,37.6220,-10.3354
-0.114319,-0.014282,-1.202393,-11.9817,34.2378,-10.4268
-0.122437,-0.033569,-1.234070,-13.0793,30.5488,-10.4878
-0.128906,-0.050903,-1.261963,-13.9024,26.5549,-10.5183
-0.134338,-0.067261,-1.287964,-14.3902,22.0122,-10.5793
-0.138489,-0.083252,-1.313110,-14.4817,17.4390,-10.6402
-0.140930,-0.097046,-1.334534,-14.2378,12.7134,-10.7317
-0.142090,-0.109802,-1.354004,-13.5366,7.5610,-10.7927
-0.141907,-0.121460,-1.371338,-12.4695,2.5915,-10.8537
-0.140137,-0.132385,-1.386292,-11.0976,-2.4390,-10.9146
-0.137085,-0.141357,-1.397217,-9.4512,-7.4695,-10.9756
-0.132935,-0.149109,-1.404907,-7.3476,-12.7134,-10.9756
-0.127197,-0.155823,-1.408325,-5.0915,-17.5915,-10.9756
-0.120544,-0.160645,-1.406799,-2.6829,-22.3476,-10.9451
-0.113098,-0.164001,-1.401184,0.0000,-27.1951,-10.8841
-0.104797,-0.165771,-1.391418,2.5915,-31.5549,-10.8537
-0.094910,-0.165344,-1.375854,5.2134,-35.7317,-10.8232
-0.084534,-0.162781,-1.356079,7.7744,-39.6951,-10.8232
-0.073242,-0.158508,-1.332825,10.3049,-43.5671,-10.8841
-0.059998,-0.151794,-1.304199,12.5305,-46.9207,-10.9756
-0.046204,-0.143311,-1.273560,14.6037,-50.0305,-11.1280
-0.031311,-0.133362,-1.240723,16.5244,-52.9268,-11.3415
-0.015259,-0.122070,-1.206177,18.1098,-55.3049,-11.6159
0.003052,-0.108765,-1.168091,19.5427,-57.3781,-11.8902
0.021729,-0.094971,-1.130615,20.8232,-59.1463,-12.1951
0.041077,-0.080383,-1.092407,21.9817,-60.5793,-12.4695
0.061890,-0.064087,-1.051270,22.9268,-61.4939,-12.6829
0.081848,-0.047913,-1.011719,23.7195,-62.0427,-12.8659
0.101440,-0.031433,-0.971985,24.4512,-62.1341,-12.9268
0.121033,-0.013794,-0.930054,25.0000,-61.7378,-12.8659
0.139526,0.003845,-0.888184,25.3963,-60.9451,-12.6829
0.155396,0.020508,-0.848938,25.6402,-59.5732,-12.3476
0.169556,0.036926,-0.810425,25.6707,-57.7439,-11.8598
0.182007,0.053650,-0.771484,25.5183,-55.4573,-11.2500
0.191284,0.068970,-0.736633,25.1220,-52.7744,-10.5183
0.198425,0.083801,-0.703796,24.4512,-49.3598,-9.5732
0.203003,0.098511,-0.672241,23.5366,-45.5793,-8.5671
0.204590,0.111694,-0.645447,22.4085,-41.3720,-7.4390
0.204102,0.124084,-0.621521,20.9146,-36.4024,-6.1585
0.201721,0.135803,-0.600647,19.2073,-31.1890,-4.8780
0.197021,0.147400,-0.583313,17.3171,-25.6402,-3.5671
0.190613,0.157715,-0.571411,15.2134,-19.7561,-2.2256
0.182861,0.167480,-0.563477,12.8049,-13.2622,-0.8841
0.173218,0.177185,-0.560791,10.3354,-6.8598,0.3659
0.162720,0.185791,-0.563843,7.7134,-0.3659,1.4939
0.151184,0.193970,-0.571655,4.8171,6.4634,2.5610
0.138611,0.201660,-0.584167,1.9817,12.8354,3.3841
0.123901,0.208740,-0.603271,-0.8537,19.0244,4.0549
0.108582,0.214417,-0.626709,-3.6890,24.9390,4.6037
0.092407,0.218872,-0.653931,-6.6768,30.7317,4.9390
0.074585,0.221741,-0.686890,-9.4207,35.7317,5.0915
0.057068,0.222595,-0.721680,-12.1037,40.2744,5.0915
0.039612,0.221802,-0.758606,-14.8171,44.3598,4.9695
0.022522,0.219238,-0.796936,-17.2866,47.5610,4.7256
0.005493,0.214050,-0.838257,-19.6646,50.1829,4.4512
-0.009521,0.206787,-0.877808,-22.0732,52.1646,4.0854
-0.023376,0.197571,-0.917053,-24.3902,53.5671,3.7195
-0.036377,0.185364,-0.957275,-26.4939,54.1768,3.3841
-0.047119,0.171387,-0.994019,-28.5366,54.2073,3.0488
-0.056763,0.155823,-1.029358,-30.5793,53.5671,2.7439
-0.065796,0.137512,-1.064880,-32.4390,52.3476,2.5305
-0.073853,0.117981,-1.098877,-34.1768,50.6707,2.3476
-0.080566,0.098206,-1.129395,-35.8232,48.3537,2.1951
-0.086731,0.077881,-1.158569,-37.2256,45.6707,2.0732
-0.092407,0.056274,-1.187866,-38.4146,42.6829,2.0122
-0.097168,0.035889,-1.214050,-39.4207,39.4207,1.9512
-0.101379,0.015930,-1.238892,-40.1220,35.6402,1.8598
-0.105164,-0.004272,-1.263367,-40.4573,31.7988,1.7988
-0.108154,-0.022461,-1.284790,-40.4878,27.7744,1.6768
-0.110657,-0.039734,-1.304810,-40.1220,23.3841,1.5244
-0.112671,-0.056091,-1.323242,-39.3293,19.1159,1.3415
-0.114075,-0.071960,-1.340698,-38.2012,14.8171,1.0976
-0.114807,-0.085571,-1.355103,-36.7073,10.4573,0.7927
-0.115112,-0.098022,-1.367859,-34.7256,5.9146,0.3963
-0.114807,-0.109436,-1.378845,-32.3780,1.6159,-0.0610
-0.113892,-0.118530,-1.386719,-29.7561,-2.6220,-0.5793
-0.112427,-0.126221,-1.392334,-26.6768,-6.9817,-1.2195
-0.110291,-0.132568,-1.395508,-23.4451,-11.0671,-1.9207
-0.106995,-0.137451,-1.395325,-20.0610,-15.0305,-2.6524
-0.102844,-0.140259,-1.391663,-16.5549,-18.9329,-3.4451
-0.097656,-0.141785,-1.385010,-12.8049,-22.8963,-4.3598
-0.090576,-0.141663,-1.373901,-9.2378,-26.5244,-5.2744
-0.082397,-0.139954,-1.359497,-5.7317,-30.0610,-6.1890
-0.072998,-0.137024,-1.342163,-2.1646,-33.5976,-7.1646
-0.062378,-0.132751,-1.322144,1.0366,-36.8293,-8.1098
-0.049683,-0.126465,-1.297913,4.0549,-39.8780,-9.0244
-0.036194,-0.118713,-1.272339,6.9817,-42.8659,-10.0000
-0.021790,-0.109558,-1.245056,9.6951,-45.6707,-10.9451
-0.005676,-0.098206,-1.214355,12.0122,-48.0793,-11.7988
0.010254,-0.085938,-1.183533,14.1159,-50.2744,-12.6220
0.026489,-0.072693,-1.151672,16.0671,-52.2866,-13.4146
0.043579,-0.057800,-1.116882,17.6829,-53.8415,-14.1159
0.060608,-0.042297,-1.081299,19.0854,-55.1220,-14.6951
0.076294,-0.027100,-1.046631,20.3659,-56.0366,-15.1524
0.091370,-0.011719,-1.011108,21.3720,-56.5244,-15.4268
0.106079,0.004517,-0.973083,22.1646,-56.6463,-15.5488
0.118835,0.019714,-0.936646,22.7439,-56.4329,-15.4573
0.130554,0.034668,-0.900269,23.1098,-55.6707,-15.1524
0.141541,0.049988,-0.862610,23.1402,-54.4512,-14.6341
0.150574,0.064026,-0.827881,22.8963,-52.8354,-13.9024
0.158447,0.077576,-0.794189,22.2866,-50.5793,-12.8963
0.165161,0.090515,-0.761902,21.3415,-47.9268,-11.7073
0.170654,0.103027,-0.729980,20.0915,-44.8780,-10.3659
0.174316,0.113892,-0.701904,18.5671,-41.3720,-8.8415
0.176758,0.123840,-0.675842,16.5244,-37.1341,-7.1037
0.177612,0.133240,-0.651550,14.2683,-32.6524,-5.2744
0.176758,0.141113,-0.631958,11.7073,-27.7744,-3.3537
0.174377,0.148193,-0.615417,8.6890,-22.2256,-1.2195
0.170593,0.154541,-0.602478,5.5488,-16.6159,0.8232
0.164429,0.160522,-0.594177,2.2256,-10.7927,2.8963
0.156677,0.165771,-0.591736,-1.2195,-4.7866,4.9390
0.147278,0.170837,-0.594055,-5.0000,1.5549,6.9512
0.135132,0.175842,-0.602783,-8.6280,7.5915,8.7195
0.121704,0.180115,-0.617004,-12.2561,13.5366,10.3354
0.106934,0.183777,-0.635742,-16.0061,19.4817,11.7683
0.091125,0.186707,-0.658813,-19.4512,24.8171,12.8659
0.073608,0.188293,-0.687927,-22.7439,29.8171,13.7500
0.056396,0.188171,-0.719666,-25.9756,34.5122,14.3902
0.039307,0.186401,-0.753845,-29.0244,38.6890,14.8171
0.021912,0.181946,-0.792114,-31.6768,42.0732,15.0000
0.006348,0.175110,-0.830139,-34.0854,44.8780,15.0610
-0.008118,0.166260,-0.868958,-36.3415,47.1341,15.0305
-0.021912,0.154358,-0.909973,-38.2012,48.5366,14.9085
-0.034546,0.140625,-0.950684,-39.8171,49.3902,14.7561
-0.045227,0.125610,-0.988586,-41.2500,49.5732,14.6037
-0.055054,0.109497,-1.025696,-42.3171,49.0854,14.4207
-0.064636,0.091553,-1.063782,-43.1402,48.1098,14.2683
-0.072998,0.073853,-1.098694,-43.7195,46.6768,14.1159
-0.081177,0.056152,-1.132568,-43.9939,44.6037,13.9329
-0.089722,0.038025,-1.166748,-43.9024,42.1341,13.6890
-0.097778,0.021667,-1.197449,-43.5366,39.3293,13.4146
-0.105896,0.006226,-1.226562,-42.7134,36.0061,12.9878
-0.113892,-0.007996,-1.253845,-41.5549,32.5305,12.5000
-0.121948,-0.021301,-1.279724,-40.0915,28.8415,11.9207
-0.129150,-0.032227,-1.301453,-38.3232,25.0000,11.2195
-0.135620,-0.041748,-1.320862,-36.1280,20.7622,10.3354
-0.141052,-0.050232,-1.338196,-33.6890,16.6159,9.3902
-0.144714,-0.056885,-1.351562,-31.0671,12.4085,8.3537
-0.147095,-0.062500,-1.362671,-28.0488,7.9268,7.1646
-0.147949,-0.067322,-1.371521,-25.0305,3.6585,6.0061
-0.146912,-0.071411,-1.377747,-21.8902,-0.6098,4.7866
-0.144043,-0.074463,-1.380615,-18.6890,-4.8171,3.5671
-0.139954,-0.076904,-1.380981,-15.2744,-9.2073,2.3171
-0.134094,-0.078552,-1.377563,-12.0732,-13.2927,1.1585
-0.127380,-0.079224,-1.370728,-8.9329,-17.2866,0.0305
-0.119934,-0.079041,-1.360840,-5.7622,-21.3415,-1.0976
-0.111877,-0.078003,-1.347656,-2.9573,-25.0305,-2.1341
-0.102783,-0.075623,-1.329773,-0.3354,-28.5366,-3.1402
-0.093567,-0.072021,-1.309082,2.1341,-32.0122,-4.1768
-0.083862,-0.067322,-1.285828,4.3902,-35.3049,-5.1829
-0.072998,-0.060974,-1.258423,6.1890,-38.1707,-6.1585
-0.062134,-0.053589,-1.230164,7.7439,-40.7927,-7.1037
-0.050903,-0.045105,-1.200500,9.0854,-43.2927,-8.1098
-0.038513,-0.034973,-1.167908,10.0610,-45.3354,-9.0549
-0.025696,-0.024048,-1.134399,10.8232,-47.1341,-10.0000
-0.013184,-0.012939,-1.101685,11.4024,-48.6890,-10.9451
-0.000427,-0.001465,-1.068481,11.7683,-49.8171,-11.7988
0.013062,0.010681,-1.032837,11.9512,-50.6707,-12.5915
0.026001,0.022278,-0.998657,12.0427,-51.2195,-13.2927
0.038940,0.033630,-0.964355,11.9207,-51.4024,-13.8720
0.052673,0.045288,-0.927856,11.6768,-51.1585,-14.2073
0.065674,0.055908,-0.893066,11.3110,-50.5793,-14.3902
0.078552,0.066223,-0.858215,10.7317,-49.4817,-14.2988
0.091248,0.076294,-0.823425,9.9695,-47.9573,-13.9329
0.104004,0.086609,-0.787109,9.0549,-46.0671,-13.3232
0.115234,0.096130,-0.753235,7.9573,-43.7805,-12.5000
0.125488,0.105530,-0.719971,6.5244,-40.7927,-11.3415
0.134705,0.115173,-0.686035,4.9085,-37.4695,-9.9695
0.141846,0.124023,-0.655151,3.0488,-33.7195,-8.4146
0.147644,0.132507,-0.625977,0.8232,-29.2683,-6.5854
0.152161,0.140442,-0.598999,-1.5549,-24.5427,-4.6646
0.155334,0.148071,-0.574463,-4.0854,-19.4817,-2.6524
0.156738,0.154724,-0.555176,-6.7988,-14.1159,-0.5793
0.156921,0.160767,-0.539856,-9.7866,-8.1098,1.6768
0.155273,0.166504,-0.529663,-12.7134,-2.1646,3.8720
0.151855,0.171265,-0.525940,-15.7012,3.9329,6.0061
0.146667,0.175598,-0.527161,-18.8415,10.3963,8.1402
0.138672,0.179565,-0.534973,-21.7683,16.5244,10.0610
0.128662,0.183105,-0.548096,-24.6646,22.5610,11.8293
0.116821,0.185974,-0.566650,-27.5305,28.6280,13.4146
0.103333,0.188293,-0.589661,-30.2744,34.4512,14.7866
0.087769,0.189697,-0.618835,-32.7134,39.5427,15.8232
0.071899,0.189819,-0.650574,-34.9390,44.2683,16.5854
0.055847,0.188721,-0.684814,-37.0427,48.6585,17.1646
0.039368,0.185730,-0.723328,-38.7805,52.2561,17.4695
0.024353,0.181091,-0.761719,-40.3049,55.3049,17.6524
0.010193,0.174866,-0.800781,-41.6768,57.8049,17.6829
-0.003235,0.167114,-0.839905,-42.7134,59.5122,17.6220
-0.016541,0.156982,-0.881042,-43.5976,60.6707,17.5305
-0.028320,0.145752,-0.919617,-44.2988,61.3110,17.3780
-0.039795,0.133362,-0.957886,-44.7866,61.2805,17.1646
-0.051697,0.119324,-0.997681,-45.0305,60.6402,16.8902
-0.062927,0.105286,-1.034912,-45.0915,59.4817,16.5549
-0.074219,0.091064,-1.071655,-44.8780,57.7134,16.0976
-0.085693,0.076660,-1.107910,-44.4207,55.5183,15.5488
-0.097778,0.061768,-1.145142,-43.6890,52.9573,14.9085
-0.109253,0.048096,-1.179260,-42.7439,50.0305,14.1463
-0.120605,0.034912,-1.212097,-41.4024,46.5244,13.1707
-0.132141,0.022034,-1.244812,-39.7866,42.8049,12.1037
-0.142700,0.010803,-1.273865,-37.9573,38.8415,10.9146
-0.152771,0.000427,-1.301270,-35.7012,34.3902,9.5122
-0.162292,-0.009216,-1.327148,-33.2927,29.8476,8.0488
-0.171265,-0.018250,-1.352478,-30.6402,25.1524,6.4939
-0.178772,-0.025757,-1.374573,-27.7744,20.3049,4.8476
-0.185303,-0.032654,-1.395142,-24.4512,14.9695,2.9573
-0.190491,-0.039062,-1.414612,-21.0671,9.7561,1.0671
-0.193726,-0.044495,-1.430725,-17.5305,4.4512,-0.9146
-0.195496,-0.049377,-1.444519,-13.5366,-1.2805,-3.0793
-0.195190,-0.053955,-1.455200,-9.6037,-6.7683,-5.1829
-0.193115,-0.057861,-1.462402,-5.5488,-12.2866,-7.3171
-0.189148,-0.060852,-1.464783,-1.2195,-18.0793,-9.5732
-0.183655,-0.062927,-1.463135,3.1402,-23.8720,-11.7988
-0.176270,-0.063843,-1.455872,7.2256,-29.3293,-13.8720
-0.167969,-0.063293,-1.443848,11.2195,-34.6646,-15.9146
-0.158813,-0.061523,-1.427856,15.2439,-40.1524,-17.9573
-0.148315,-0.057983,-1.406494,18.8415,-45.1829,-19.8476
-0.137451,-0.053162,-1.382324,22.2561,-50.0000,-21.7073
-0.125305,-0.047485,-1.355957,25.5793,-54.8476,-23.5976
-0.110352,-0.041809,-1.327942,28.5061,-59.1159,-25.3659
-0.091003,-0.035950,-1.296387,31.2500,-63.1098,-27.0122
-0.070557,-0.029846,-1.264282,33.8415,-66.7988,-28.5671
-0.049255,-0.023315,-1.230103,36.4024,-70.2134,-30.0305
-0.027039,-0.015442,-1.190674,38.6280,-72.9573,-31.2195
-0.005554,-0.007507,-1.150269,40.7012,-75.2744,-32.2561
0.015564,0.000793,-1.106934,42.5915,-77.0732,-33.0488
0.035828,0.009521,-1.060608,44.0854,-78.1402,-33.5366
0.054810,0.019653,-1.008362,45.2744,-78.6585,-33.7500
0.070251,0.030273,-0.956116,46.1281,-78.6281,-33.7500
0.084900,0.041138,-0.903015,46.4939,-77.7744,-33.3841
0.100220,0.052795,-0.847778,46.3415,-76.2500,-32.6829
0.115112,0.063843,-0.796875,45.7622,-74.1159,-31.7378
0.130127,0.074890,-0.748413,44.6037,-71.0671,-30.3049
0.144958,0.086182,-0.702881,43.0488,-67.4390,-28.5976
0.159180,0.098511,-0.659241,41.1585,-63.2317,-26.6159
0.170776,0.110718,-0.621948,38.9329,-58.4756,-24.3598
0.180176,0.123352,-0.587646,36.1890,-52.7744,-21.7378
0.186890,0.136719,-0.555420,33.2317,-46.7378,-19.0244
0.190125,0.149170,-0.528748,30.0305,-40.2744,-16.1585
0.191162,0.161072,-0.505493,26.3415,-32.8963,-13.0183
0.189880,0.172546,-0.486084,22.5610,-25.5183,-9.9695
0.186951,0.183167,-0.471191,18.5976,-17.8354,-6.8598
0.182373,0.192200,-0.462830,14.2378,-9.5427,-3.5366
0.176758,0.200378,-0.459839,9.7561,-1.1890,-0.2439
0.169373,0.207947,-0.464355,5.3963,6.7988,2.8659
0.160950,0.214111,-0.476135,1.0366,14.6646,5.9451
0.151245,0.219727,-0.493652,-3.5366,22.6829,8.9939
0.138672,0.224915,-0.518921,-7.8049,29.9390,11.7683
0.124756,0.229187,-0.549072,-11.9512,36.7988,14.3293
0.109131,0.232910,-0.583008,-16.1280,43.4756,16.7378
0.092163,0.235840,-0.619934,-19.9085,49.1768,18.7500
0.073181,0.237488,-0.661560,-23.4756,54.3293,20.5183
0.054504,0.237610,-0.703125,-26.8902,58.9329,22.0427
0.036011,0.236267,-0.745605,-30.2439,63.0183,23.3537
0.017578,0.232727,-0.790955,-33.1707,66.1281,24.3293
0.001343,0.227356,-0.834045,-35.9146,68.5976,25.1524
-0.013672,0.220276,-0.876770,-38.5061,70.4573,25.8232
-0.027466,0.211731,-0.919067,-40.7317,71.4634,26.3110
-0.040771,0.200989,-0.962830,-42.7439,71.8902,26.7073
-0.052307,0.189514,-1.003418,-44.5427,71.7683,26.9512
-0.063293,0.177307,-1.043274,-46.1281,70.9451,27.1037
-0.074707,0.163879,-1.084290,-47.2866,69.5427,27.0732
-0.085388,0.150696,-1.122070,-48.2012,67.6524,26.8902
-0.096069,0.137329,-1.158936,-48.7805,65.0915,26.4634
-0.106628,0.124023,-1.194702,-48.9634,62.1341,25.8841
-0.117310,0.110168,-1.230713,-48.8110,58.8110,25.0915
-0.126953,0.097412,-1.263062,-48.3841,55.1524,24.1159
-0.135925,0.085083,-1.293762,-47.4695,50.8537,22.8963
-0.144165,0.072876,-1.323669,-46.1890,46.4329,21.5244
-0.150757,0.062195,-1.349609,-44.6341,41.7988,20.0000
-0.156250,0.052429,-1.373474,-42.5305,36.6463,18.2012
-0.160706,0.043640,-1.395874,-40.1524,31.5854,16.4024
-0.164062,0.035950,-1.415833,-37.4695,26.4024,14.4817
-0.165955,0.030151,-1.431946,-34.2378,20.8537,12.3476
-0.167053,0.025574,-1.445618,-30.7317,15.2744,10.0915
-0.167114,0.022156,-1.456421,-27.0427,9.9695,7.8659
-0.166077,0.020142,-1.463196,-23.1402,4.6951,5.5793
-0.164062,0.018921,-1.466858,-18.8110,-0.7622,3.0488
-0.160339,0.018311,-1.466309,-14.5427,-5.8537,0.5793
-0.155334,0.018372,-1.461426,-10.1829,-10.8537,-1.9512
-0.148926,0.018860,-1.452942,-5.6098,-15.9756,-4.6646
-0.141113,0.019653,-1.440918,-1.3415,-20.6402,-7.2561
-0.130737,0.020996,-1.424011,2.8049,-25.2134,-9.8476
-0.119080,0.022827,-1.404175,6.7683,-29.6037,-12.3780
-0.106018,0.025146,-1.381714,10.7317,-34.0244,-15.0000
-0.090759,0.028564,-1.354919,14.2073,-37.9878,-17.4085
-0.075073,0.032715,-1.326721,17.4390,-41.7683,-19.7256
-0.058716,0.037598,-1.296692,20.5488,-45.4573,-22.0732
-0.041870,0.043213,-1.264954,23.1707,-48.6890,-24.1463
-0.023743,0.049744,-1.229675,25.5488,-51.7073,-26.1280
-0.006409,0.056519,-1.194580,27.6829,-54.4512,-27.9878
0.011047,0.063416,-1.158203,29.5732,-57.0122,-29.6951
0.029602,0.070679,-1.118408,31.0671,-59.0549,-31.0976
0.047241,0.077393,-1.079590,32.2561,-60.8232,-32.2256
0.064941,0.083801,-1.040344,33.1402,-62.2256,-33.0183
0.082520,0.089844,-1.000793,33.5976,-63.0793,-33.3537
0.100525,0.095764,-0.959229,33.8110,-63.5671,-33.3232
0.116821,0.101074,-0.920166,33.7195,-63.6281,-32.9268
0.132141,0.106140,-0.881836,33.2317,-63.0793,-31.9512
0.146057,0.111023,-0.843140,32.4085,-61.9512,-30.5793
0.156921,0.115356,-0.808411,31.2805,-60.3354,-28.8720
0.165283,0.119446,-0.775696,29.7561,-57.9573,-26.7378
0.170532,0.123108,-0.744385,27.9573,-55.0610,-24.3902
0.172913,0.126404,-0.715820,25.8841,-51.6768,-21.9207
0.171814,0.128845,-0.692200,23.4146,-47.4695,-19.1768
0.168152,0.130615,-0.671692,20.6707,-42.7744,-16.4024
0.161560,0.131775,-0.654541,17.8354,-37.8354,-13.7805
0.153015,0.132141,-0.642883,14.8476,-32.5610,-11.2195
0.143005,0.132019,-0.635254,11.5244,-26.7073,-8.5671
0.131287,0.131287,-0.632874,8.2622,-20.9146,-6.1890
0.119324,0.130127,-0.636108,4.9390,-15.0305,-3.9024
0.106812,0.128601,-0.643799,1.4939,-8.9329,-1.6159
0.093872,0.126892,-0.655884,-1.7073,-3.2622,0.3963
0.079712,0.124695,-0.673950,-4.7866,2.2256,2.2866
0.065735,0.122192,-0.695862,-7.7134,7.4085,4.0549
0.051392,0.119324,-0.720886,-10.5488,12.3780,5.7012
0.035828,0.115662,-0.750427,-12.9878,16.5854,7.1037
0.020752,0.111450,-0.780823,-15.1829,20.3049,8.2927
0.005554,0.106628,-0.812378,-17.1951,23.5976,9.3598
-0.009521,0.101135,-0.844666,-18.8110,26.0366,10.1524
-0.025085,0.094360,-0.878967,-20.2134,27.9573,10.7927
-0.039185,0.086975,-0.911499,-21.3720,29.3598,11.2805
-0.052673,0.078979,-0.943604,-22.2866,30.1220,11.6159
-0.065796,0.069641,-0.976501,-22.8963,30.2134,11.7683
-0.077332,0.060120,-1.006653,-23.2927,29.8476,11.8293
-0.088135,0.050171,-1.035706,-23.4451,28.8720,11.7378
-0.098328,0.039917,-1.063477,-23.3537,27.4390,11.5549
-0.108398,0.028931,-1.091064,-23.0488,25.6707,11.2500
-0.117310,0.018555,-1.115417,-22.5610,23.5671,10.8841
-0.125854,0.008240,-1.138367,-21.7988,20.9756,10.3354
-0.134216,-0.002197,-1.160828,-20.8537,18.2622,9.7256
-0.141663,-0.011536,-1.180359,-19.6951,15.3354,8.9634
-0.148560,-0.020264,-1.198547,-18.2622,12.0732,8.0793
-0.154968,-0.028625,-1.215881,-16.6768,8.8110,7.0732
-0.160645,-0.036255,-1.231628,-14.9085,5.4573,5.9756
-0.164978,-0.042664,-1.244751,-12.8354,1.8293,4.7256
-0.168396,-0.048279,-1.256348,-10.6402,-1.8293,3.4146
-0.170593,-0.053284,-1.266174,-8.3537,-5.3354,2.0427
-0.171326,-0.057129,-1.273071,-5.9756,-8.8415,0.6707
-0.170837,-0.060303,-1.277649,-3.3841,-12.5610,-0.8537
-0.168457,-0.062805,-1.278931,-0.8537,-16.0671,-2.3476
-0.164551,-0.064514,-1.276733,1.7073,-19.5122,-3.8110
-0.159180,-0.065613,-1.271667,4.3902,-23.0793,-5.3659
-0.152466,-0.066223,-1.263550,6.8598,-26.3415,-6.7988
-0.143799,-0.065979,-1.250732,9.2683,-29.5122,-8.2012
-0.134155,-0.064819,-1.234558,11.5244,-32.5610,-9.5427
-0.123718,-0.062927,-1.215393,13.7195,-35.5488,-10.8232
-0.111938,-0.059753,-1.191772,15.5793,-38.1707,-11.9817
-0.100037,-0.055603,-1.166260,17.2256,-40.6098,-13.0183
-0.087830,-0.050415,-1.138672,18.6585,-42.8659,-13.9939
-0.075378,-0.044189,-1.109436,19.7561,-44.6951,-14.7866
-0.061951,-0.036133,-1.076843,20.6402,-46.2195,-15.4878
-0.049072,-0.027222,-1.044556,21.3415,-47.4390,-16.0976
-0.036011,-0.017151,-1.011353,21.7683,-48.2622,-16.5549
-0.021729,-0.005249,-0.975159,21.9817,-48.5671,-16.8598
-0.007935,0.007324,-0.940002,21.9817,-48.5061,-17.0122
0.006104,0.020691,-0.904419,21.7378,-47.8354,-16.9207
0.020264,0.034790,-0.868469,21.2805,-46.6768,-16.6159
0.034973,0.050354,-0.830566,20.6707,-45.0305,-16.0976
0.048584,0.065552,-0.794800,19.7561,-42.7134,-15.1829
0.061646,0.080872,-0.759705,18.6585,-39.8780,-14.0244
0.074036,0.097046,-0.724182,17.3780,-36.6159,-12.6220
0.084290,0.112244,-0.692200,15.9146,-32.9268,-11.0061
0.093018,0.127197,-0.661926,14.1159,-28.4451,-9.0244
0.099670,0.142578,-0.632690,12.1646,-23.7195,-6.9207
0.104248,0.157471,-0.606079,10.0000,-18.6280,-4.7256
0.106079,0.170898,-0.584412,7.4390,-12.8659,-2.3476
0.105835,0.183472,-0.565918,4.7866,-7.0732,-0.0915
0.103088,0.195618,-0.551392,1.9817,-1.0671,2.1341
0.098206,0.205933,-0.542542,-1.0061,5.0610,4.2683
0.091675,0.215149,-0.538452,-4.2988,11.5854,6.3415
0.083008,0.223267,-0.541077,-7.5000,17.7744,8.0793
0.073364,0.229309,-0.550049,-10.7317,23.8720,9.6646
0.062561,0.234131,-0.564087,-14.0549,30.0305,11.0366
0.050903,0.237915,-0.583008,-17.1037,35.5793,12.0732
0.037598,0.240662,-0.608337,-19.9695,40.7927,12.8963
0.024353,0.242004,-0.637329,-22.6829,45.6707,13.5061
0.010803,0.242249,-0.669434,-25.2439,50.2134,13.9024
-0.003418,0.240845,-0.706055,-27.3780,53.9634,14.0244
-0.016724,0.237976,-0.742798,-29.2378,57.2256,13.9939
-0.029724,0.233826,-0.780457,-30.8537,59.9695,13.7805
-0.042053,0.228271,-0.818665,-32.0732,61.9207,13.4451
-0.054199,0.220215,-0.859070,-33.0488,63.3841,13.0488
-0.064880,0.210632,-0.897400,-33.8110,64.3293,12.5610
-0.075012,0.199524,-0.935425,-34.2683,64.6646,12.0122
-0.085144,0.186157,-0.975098,-34.4512,64.3902,11.4939
-0.094482,0.171997,-1.012207,-34.3902,63.6585,10.9146
-0.103760,0.157043,-1.048828,-34.0549,62.3476,10.2744
-0.113098,0.141541,-1.084839,-33.4451,60.6098,9.6646
-0.123108,0.124878,-1.121826,-32.6524,58.5061,8.9939
-0.132812,0.109009,-1.155884,-31.5244,55.8841,8.2317
-0.142639,0.093445,-1.188904,-30.1524,52.8963,7.4085
-0.153015,0.077759,-1.222351,-28.5976,49.7561,6.5244
-0.162842,0.063843,-1.252808,-26.7988,46.3415,5.5793
-0.172546,0.050781,-1.282166,-24.5732,42.4390,4.4512
-0.182373,0.038452,-1.311646,-22.1951,38.4756,3.2927
-0.191833,0.027222,-1.339966,-19.5732,34.3293,2.0427
-0.200256,0.017944,-1.365417,-16.4939,29.7256,0.5793
-0.207947,0.009705,-1.389771,-13.2622,25.1524,-0.9146
-0.214844,0.002258,-1.413330,-9.8171,20.4268,-2.5000
-0.220032,-0.003723,-1.433350,-6.1890,15.5793,-4.2073
-0.223938,-0.008911,-1.450867,-2.1341,10.2744,-6.1280
-0.225952,-0.013489,-1.465088,1.9207,5.1524,-8.0488
-0.225647,-0.016968,-1.474304,6.0366,-0.0610,-10.0305
-0.223450,-0.019775,-1.479614,10.4268,-5.6098,-12.1951
-0.219299,-0.021729,-1.480774,14.5732,-10.9146,-14.2683
-0.212585,-0.022461,-1.476562,18.6585,-16.1890,-16.3415
-0.204224,-0.021973,-1.467285,22.6524,-21.4634,-18.4146
-0.194641,-0.020508,-1.453979,26.6463,-26.8902,-20.5488
-0.183716,-0.017578,-1.435181,30.2439,-31.9512,-22.5000
-0.172791,-0.013611,-1.413208,33.5976,-36.8598,-24.3902
-0.162048,-0.008606,-1.388428,36.7988,-41.8293,-26.3415
-0.151672,-0.002808,-1.361328,39.5427,-46.2805,-28.0793
-0.141541,0.004150,-1.330322,42.0427,-50.4878,-29.7561
-0.132446,0.011292,-1.298950,44.2683,-54.4207,-31.4329
-0.123413,0.018860,-1.266663,46.3110,-58.1707,-33.1098
-0.113464,0.027405,-1.231995,47.9268,-61.3110,-34.6646
-0.103577,0.036072,-1.198669,49.3598,-64.0854,-36.1890
-0.092651,0.045105,-1.164917,50.6402,-66.5244,-37.7134
-0.080444,0.054321,-1.130432,51.6159,-68.2927,-39.0854
-0.065247,0.064270,-1.092346,52.4695,-69.6646,-40.3659
-0.048584,0.073730,-1.054626,53.1098,-70.4878,-41.4634
-0.030396,0.083374,-1.015198,53.5366,-70.8232,-42.3780
-0.009766,0.093811,-0.971680,53.6890,-70.5488,-42.9573
0.011108,0.103760,-0.928772,53.5976,-69.7561,-43.2012
0.032471,0.113831,-0.885193,53.1707,-68.2317,-43.0183
0.054688,0.124817,-0.839294,52.4085,-66.1585,-42.3476
0.076111,0.135925,-0.794006,51.3415,-63.5366,-41.3110
0.094849,0.146729,-0.752502,49.7866,-60.0610,-39.6951
0.111633,0.157776,-0.712952,47.9268,-56.1281,-37.6829
0.126038,0.169556,-0.674194,45.7622,-51.7073,-35.3354
0.136536,0.180847,-0.640503,43.2317,-46.8293,-32.7134
0.144226,0.192139,-0.609375,40.1524,-41.1280,-29.6341
0.148743,0.204041,-0.580139,36.7988,-35.2134,-26.4634
0.149658,0.214844,-0.556213,33.1098,-28.9634,-23.1707
0.148315,0.225098,-0.535645,28.7805,-22.0122,-19.5732
0.145020,0.234619,-0.518555,24.2988,-15.1524,-16.0976
0.139648,0.243286,-0.506104,19.5427,-8.1402,-12.6220
0.132874,0.250244,-0.500122,14.5427,-1.0671,-9.2073
0.125061,0.255981,-0.499451,9.0244,6.3720,-5.7012
0.115540,0.260254,-0.506287,3.6280,13.3232,-2.5000
0.105286,0.262329,-0.519775,-1.8293,20.1220,0.5183
0.094055,0.262817,-0.538940,-7.5610,26.9207,3.4756
0.081787,0.261902,-0.563477,-12.8963,32.9878,5.9756
0.067383,0.258972,-0.595764,-18.0793,38.6890,8.2927
0.052368,0.254395,-0.631836,-23.0793,43.9329,10.3354
0.036377,0.248230,-0.671204,-27.9573,48.8415,12.1951
0.018799,0.239502,-0.715881,-32.1951,52.8354,13.6585
0.001648,0.229065,-0.760681,-36.0976,56.3110,14.9390
-0.015381,0.216919,-0.806580,-39.6951,59.2378,16.0366
-0.032104,0.203064,-0.853149,-42.6220,61.3110,16.9207
-0.048828,0.186401,-0.902344,-45.1524,62.7744,17.6524
-0.063782,0.168640,-0.948853,-47.2256,63.6281,18.3232
-0.078003,0.149597,-0.995056,-48.9024,63.9024,18.9024
-0.092163,0.127991,-1.043030,-49.9390,63.4756,19.3598
-0.104736,0.106445,-1.087524,-50.5183,62.5305,19.7256
-0.116821,0.084351,-1.130859,-50.6098,60.9146,19.9390
-0.129028,0.060852,-1.174683,-50.1220,58.7805,20.0305
-0.140747,0.037476,-1.216919,-49.2378,56.2195,19.9695
-0.151489,0.015747,-1.254761,-47.7439,52.9878,19.6646
-0.161865,-0.005249,-1.290527,-45.8232,49.4817,19.2073
-0.172058,-0.026062,-1.325134,-43.4451,45.6402,18.5366
-0.180969,-0.044373,-1.354797,-40.7012,41.4939,17.7134
-0.188965,-0.061462,-1.381714,-37.2256,36.8293,16.6463
-0.195862,-0.077576,-1.406494,-33.4756,32.1037,15.4268
-0.200928,-0.090942,-1.426331,-29.3598,27.1951,14.0854
-0.204529,-0.102661,-1.443115,-24.5732,21.8293,12.5305
-0.206665,-0.112732,-1.456665,-19.6646,16.6159,10.9146
-0.206787,-0.120850,-1.466370,-14.4817,11.3110,9.2378
-0.204895,-0.126160,-1.471130,-9.0549,5.9756,7.5305
-0.201416,-0.129333,-1.472290,-3.1707,0.3659,5.6402
-0.195801,-0.129700,-1.468872,2.5915,-4.9390,3.8415
-0.188782,-0.127319,-1.461121,8.4146,-10.1524,2.0122
-0.180542,-0.122925,-1.449829,14.5427,-15.4878,0.0915
-0.171265,-0.116577,-1.434998,20.3354,-20.3963,-1.7073
-0.160461,-0.107666,-1.415222,26.0061,-25.1524,-3.4756
-0.149353,-0.097168,-1.392700,31.5244,-29.6951,-5.1829
-0.137939,-0.085388,-1.367615,37.1037,-34.2073,-6.9207
-0.125916,-0.071228,-1.338074,42.1341,-38.1707,-8.4756
-0.114807,-0.056396,-1.307190,46.9207,-41.8598,-10.0000
-0.104309,-0.040466,-1.274475,51.5854,-45.3963,-11.6463
-0.094543,-0.023315,-1.240417,55.6402,-48.3232,-13.2012
-0.085266,-0.003784,-1.203186,59.3902,-50.9146,-14.8476
-0.077332,0.015991,-1.167114,62.9573,-53.2012,-16.7683
-0.070007,0.036560,-1.130615,66.1890,-55.0915,-18.8110
-0.062622,0.059143,-1.091980,68.8720,-56.4024,-20.9756
-0.055847,0.081055,-1.055237,71.2195,-57.3476,-23.2622
-0.048828,0.103210,-1.018494,73.2927,-57.8354,-25.7927
-0.040833,0.126526,-0.979797,74.8476,-57.8354,-28.3232
-0.032410,0.149719,-0.941223,76.0366,-57.4390,-30.8537
-0.023682,0.171326,-0.904907,76.8293,-56.4939,-33.4146
-0.014648,0.192749,-0.868713,77.1037,-55.1524,-35.6707
-0.005127,0.215454,-0.830994,76.9817,-53.4146,-37.7744
0.003601,0.237061,-0.795654,76.4329,-51.2805,-39.6341
0.011536,0.258911,-0.761169,75.2439,-48.5366,-41.3110
0.018188,0.282532,-0.726135,73.5061,-45.4878,-42.6220
0.022766,0.305298,-0.694580,71.2805,-42.1037,-43.7195
0.025696,0.328125,-0.664856,68.2317,-38.1402,-44.6341
0.026917,0.350769,-0.637390,64.6951,-33.9939,-45.3049
0.026367,0.373108,-0.612305,60.6098,-29.6037,-45.8232
0.024170,0.392395,-0.592407,56.0061,-25.0000,-46.2805
0.021118,0.409241,-0.576111,50.4573,-19.9390,-46.6159
0.017273,0.422729,-0.564026,44.6341,-15.0305,-46.8293
0.013306,0.431274,-0.557678,38.3537,-10.0305,-46.9817
0.009338,0.436035,-0.555542,31.2195,-4.7866,-47.0122
0.005310,0.437012,-0.557434,24.0549,0.1220,-46.9207
0.000854,0.433777,-0.564453,16.6159,4.9085,-46.7073
-0.003479,0.426941,-0.575989,8.9939,9.5732,-46.4329
-0.008240,0.417969,-0.591248,0.8537,14.2378,-46.0366
-0.014099,0.406860,-0.612000,-6.9207,18.3537,-45.5793
-0.020569,0.395203,-0.635803,-14.5732,22.2256,-45.1220
-0.028015,0.383484,-0.662415,-22.3780,25.9146,-44.6341
-0.036377,0.372253,-0.691528,-29.4512,28.9939,-44.2378
-0.046509,0.361450,-0.724548,-36.1585,31.7378,-43.9329
-0.057068,0.352295,-0.757751,-42.7134,34.1463,-43.7805
-0.068298,0.343689,-0.791443,-48.7805,36.1890,-43.8110
-0.080017,0.334167,-0.826599,-53.9329,37.6220,-44.0244
-0.090515,0.323975,-0.859131,-58.6281,38.6890,-44.4207
-0.099792,0.311462,-0.890442,-62.9878,39.3293,-44.9695
-0.106628,0.293152,-0.921631,-66.6159,39.5122,-45.5793
-0.110901,0.270325,-0.951233,-69.8476,39.3293,-46.2195
-0.111389,0.242554,-0.977295,-72.8049,38.7500,-46.7073
-0.108826,0.209106,-1.002014,-75.2744,37.8659,-46.9207
-0.102539,0.166931,-1.026611,-77.4390,36.6768,-46.8293
-0.093323,0.120605,-1.048767,-79.3598,35.3049,-46.3415
-0.082336,0.070435,-1.070435,-81.0366,33.5976,-45.2439
-0.069885,0.014526,-1.092957,-82.2866,31.7683,-43.5671
-0.057922,-0.040283,-1.114136,-83.2317,29.7866,-41.4634
-0.046875,-0.094910,-1.135254,-83.6890,27.5915,-38.6585
-0.037354,-0.148254,-1.156433,-83.5976,25.4268,-35.5488
-0.030090,-0.200989,-1.178467,-82.9878,23.2317,-32.1646
-0.026001,-0.246948,-1.198914,-81.7988,21.0061,-28.5976
-0.024353,-0.288696,-1.218689,-79.7256,18.6585,-24.7866
-0.025635,-0.326721,-1.238098,-76.9207,16.4634,-21.1890
-0.029419,-0.356750,-1.254944,-73.4451,14.2683,-17.7439
-0.034790,-0.381958,-1.270203,-68.8720,12.0122,-14.4207
-0.041138,-0.402588,-1.283508,-63.6585,9.9390,-11.6159
-0.047974,-0.418640,-1.294556,-57.8354,7.8963,-9.1159
-0.054321,-0.428650,-1.302002,-51.4024,5.8841,-6.9512
-0.059692,-0.434875,-1.306824,-43.9329,3.8415,-5.1220
-0.063477,-0.436768,-1.308167,-36.3110,1.9207,-3.7500
-0.065063,-0.434326,-1.305786,-28.3232,0.0610,-2.7134
-0.064819,-0.428589,-1.300293,-19.6341,-1.8598,-1.9207
-0.062683,-0.419617,-1.291870,-11.2195,-3.6280,-1.4634
-0.058472,-0.406128,-1.279480,-2.7744,-5.3049,-1.2500
-0.052734,-0.389648,-1.264771,6.0366,-6.9817,-1.2500
-0.045898,-0.370667,-1.247864,14.6646,-8.5976,-1.4634
-0.037903,-0.347595,-1.227600,22.6220,-10.0000,-1.8902
-0.029785,-0.323120,-1.206238,30.3049,-11.2500,-2.4390
-0.021545,-0.297058,-1.183533,37.9878,-12.4085,-3.1707
-0.013000,-0.267822,-1.158264,44.7866,-13.3537,-4.0244
-0.004700,-0.237549,-1.132141,51.1890,-14.0854,-4.9085
0.002686,-0.207825,-1.106628,57.3171,-14.6646,-5.8537
0.009583,-0.177429,-1.080688,62.5000,-14.9695,-6.7683
0.016113,-0.144592,-1.053284,67.1646,-15.0610,-7.6524
0.021484,-0.112915,-1.027649,71.2195,-15.0000,-8.4451
0.026245,-0.080933,-1.002380,74.6951,-14.6646,-9.2073
0.030701,-0.046875,-0.976501,77.1646,-14.1159,-9.7866
0.034241,-0.014526,-0.952820,78.9329,-13.4146,-10.2439
0.037231,0.017761,-0.929749,79.8781,-12.4695,-10.5183
0.039551,0.049744,-0.907410,79.8781,-11.4024,-10.5488
0.040588,0.083069,-0.884888,79.1159,-10.2439,-10.3963
0.040222,0.114197,-0.864624,77.5915,-9.0244,-10.0610
0.038391,0.144836,-0.845520,74.9695,-7.6524,-9.4817
0.033875,0.176636,-0.827454,71.5854,-6.2805,-8.7500
0.027161,0.206116,-0.812500,67.4390,-4.8476,-7.9268
0.018250,0.234863,-0.799805,62.2256,-3.2927,-7.0427
0.007385,0.262756,-0.789734,56.5244,-1.7378,-6.3110
-0.005920,0.290222,-0.782959,50.2744,-0.1524,-5.6707
-0.020020,0.314148,-0.780334,43.5671,1.4634,-5.2439
-0.034424,0.335693,-0.781006,36.0671,3.2317,-5.0915
-0.049011,0.354004,-0.786072,28.5976,4.9085,-5.2134
-0.061829,0.366943,-0.794800,20.9756,6.5549,-5.5488
-0.073364,0.375854,-0.806335,12.8354,8.1707,-6.1280
-0.083313,0.380554,-0.820557,5.1220,9.6341,-6.8598
-0.091492,0.380188,-0.838562,-2.5000,10.9146,-7.6524
-0.097107,0.374817,-0.858215,-10.3354,12.0427,-8.4756
-0.101135,0.365784,-0.879395,-17.8963,12.9878,-9.2683
-0.103821,0.352295,-0.902649,-24.7256,13.5976,-9.9390
-0.105042,0.336182,-0.925171,-31.2195,13.9939,-10.5183
-0.105347,0.317810,-0.947449,-37.5610,14.1768,-10.9756
-0.104797,0.296082,-0.970032,-43.0488,14.1159,-11.2500
-0.103638,0.272583,-0.991516,-48.0793,13.9024,-11.4024
-0.101868,0.248352,-1.010254,-52.8049,13.5366,-11.3720
-0.099548,0.222717,-1.027222,-56.6768,13.0488,-11.2195
-0.096252,0.193787,-1.042725,-60.1220,12.5305,-10.8841
-0.092346,0.164795,-1.055298,-63.1098,12.0122,-10.4268
-0.087891,0.134338,-1.066345,-65.6707,11.4329,-9.7561
-0.082397,0.100159,-1.076477,-67.5610,10.9451,-8.9329
-0.076416,0.065979,-1.084839,-69.0244,10.4878,-7.9573
-0.070068,0.030457,-1.092590,-69.9390,10.0915,-6.7073
-0.063354,-0.006226,-1.099976,-70.2134,9.7866,-5.3049
-0.056091,-0.046326,-1.107666,-70.0305,9.5732,-3.7195
-0.049133,-0.085510,-1.115112,-69.2988,9.4207,-2.0122
-0.042358,-0.125488,-1.122864,-67.8049,9.3598,-0.0305
-0.035400,-0.168274,-1.131714,-65.6402,9.3902,2.0427
-0.029236,-0.209045,-1.140686,-62.8659,9.5122,4.2073
-0.023560,-0.249451,-1.150085,-59.0549,9.6646,6.6463
-0.018311,-0.289185,-1.159851,-54.5732,9.9085,9.0549
-0.013489,-0.328979,-1.170288,-49.3902,10.1524,11.5549
-0.009644,-0.363953,-1.180176,-43.4451,10.4268,14.0854
-0.006409,-0.395508,-1.189575,-36.1585,10.7012,16.7378
-0.003784,-0.422546,-1.198303,-28.3537,10.9756,19.2378
-0.002197,-0.441772,-1.205200,-19.8171,11.2195,21.6463
-0.001099,-0.454834,-1.210388,-10.0000,11.4329,23.9634
-0.000549,-0.461548,-1.213745,0.0305,11.5854,25.9451
-0.000305,-0.460327,-1.214294,10.5793,11.7073,27.6220
-0.000122,-0.451416,-1.211975,22.1341,11.7683,29.0549
0.000244,-0.437134,-1.207458,33.9634,11.7988,30.1220
0.001465,-0.416321,-1.199890,45.3659,11.7683,30.7927
0.003479,-0.391968,-1.190063,56.7683,11.7378,31.1585
0.006348,-0.365051,-1.178284,68.5061,11.6768,31.2500
0.010498,-0.334656,-1.163513,79.2378,11.6463,31.0671
0.015503,-0.303162,-1.147156,89.5122,11.5854,30.7927
0.021179,-0.272644,-1.130005,99.4512,11.5854,30.3963
0.027161,-0.242065,-1.111816,107.9573,11.6463,30.0000
0.033386,-0.210144,-1.091797,115.6098,11.7683,29.6646
0.038940,-0.180298,-1.072083,122.2866,11.9207,29.3902
0.043762,-0.150757,-1.052246,128.0183,12.2561,29.2683
0.047424,-0.119751,-1.031860,132.1646,12.6829,29.2683
0.049438,-0.090393,-1.013428,135.2439,13.2622,29.4207
0.049866,-0.060730,-0.996155,137.1342,13.9939,29.6951
0.048584,-0.030518,-0.980347,137.6524,14.8476,30.0610
0.044800,0.002441,-0.966125,137.1646,15.8232,30.4573
0.038940,0.034668,-0.955139,135.7012,16.8598,30.8841
0.031189,0.067749,-0.946472,132.9573,17.9878,31.2500
0.020752,0.103638,-0.940491,129.2683,19.0244,31.5244
0.008667,0.138489,-0.937805,124.7561,20.0000,31.6768
-0.004700,0.173767,-0.937500,119.0244,20.8537,31.6159
-0.019348,0.209167,-0.939270,112.6829,21.4329,31.3110
-0.035767,0.246338,-0.943481,105.7317,21.7988,30.8232
-0.052063,0.281189,-0.949402,98.2317,21.9207,30.0915
-0.068542,0.315430,-0.956482,89.6951,21.6463,28.9939
-0.085571,0.350403,-0.964661,81.0671,21.0671,27.6829
-0.101257,0.382263,-0.972900,72.1646,20.1829,26.0976
-0.116089,0.412659,-0.981140,62.5000,18.9329,24.0854
-0.129822,0.441223,-0.989197,53.1098,17.4390,21.8902
-0.142456,0.468140,-0.997314,43.6890,15.7927,19.4512
-0.152527,0.490173,-1.004578,33.7805,13.8415,16.6463
-0.160828,0.508606,-1.011597,23.9024,11.7988,13.6280
-0.166992,0.522339,-1.018738,14.7256,9.7256,10.5793
-0.170471,0.529724,-1.025146,5.6707,7.6524,7.4390
-0.172058,0.532227,-1.031311,-3.6280,5.4573,4.0854
-0.171692,0.528564,-1.037354,-12.1951,3.3841,0.8537
-0.169861,0.520203,-1.043152,-20.5183,1.3720,-2.3171
-0.166565,0.507080,-1.048218,-28.9939,-0.7012,-5.5488
-0.162415,0.490662,-1.052795,-36.7073,-2.5610,-8.4451
-0.157410,0.470398,-1.056885,-44.1768,-4.3598,-11.2195
-0.152100,0.448914,-1.060059,-51.3415,-6.0671,-13.8415
-0.146545,0.426514,-1.062622,-58.5061,-7.7744,-16.4024
-0.140381,0.402283,-1.064697,-64.9085,-9.2988,-18.6280
-0.134155,0.378906,-1.066101,-70.9451,-10.7012,-20.7012
-0.127441,0.354980,-1.067078,-76.8598,-12.1037,-22.7439
-0.120056,0.330078,-1.067810,-81.9512,-13.3232,-24.4817
-0.111084,0.301331,-1.068604,-86.6463,-14.4512,-26.0671
-0.101318,0.271484,-1.069397,-90.9451,-15.5183,-27.4695
-0.090515,0.238586,-1.070557,-94.9390,-16.5244,-28.6280
-0.077759,0.198669,-1.072693,-98.1707,-17.3780,-29.4207
-0.064636,0.155701,-1.075684,-100.9756,-18.1707,-29.9085
-0.050903,0.108521,-1.079773,-103.2622,-18.9024,-29.8780
-0.036865,0.057373,-1.085022,-104.8171,-19.4817,-29.3293
-0.022278,-0.000427,-1.092102,-105.8232,-19.9695,-28.2927
-0.008972,-0.058167,-1.100342,-106.2500,-20.3963,-26.7683
0.003357,-0.116516,-1.109497,-105.7622,-20.7622,-24.5427
0.014404,-0.176575,-1.119934,-104.4207,-21.0366,-21.8902
0.022888,-0.230957,-1.130432,-102.2866,-21.2195,-18.8415
0.029541,-0.281555,-1.141174,-98.8720,-21.3720,-15.2439
0.034302,-0.327332,-1.151794,-94.5122,-21.4024,-11.5549
0.037170,-0.367554,-1.162537,-89.2073,-21.4024,-7.8049
0.037781,-0.397400,-1.171936,-82.3476,-21.3110,-3.9024
0.036865,-0.420105,-1.180481,-74.5122,-21.1280,-0.1524
0.034241,-0.434143,-1.187866,-65.9451,-20.8841,3.1402
0.030273,-0.438049,-1.193359,-56.5549,-20.5488,6.0671
0.025269,-0.434692,-1.197205,-45.7012,-20.0915,8.6585
0.018982,-0.422241,-1.198914,-34.5732,-19.5427,10.5183
0.012207,-0.403442,-1.198608,-22.9268,-18.9024,11.8902
0.005249,-0.378601,-1.195862,-10.2134,-18.1402,12.6829
-0.001709,-0.349243,-1.191040,2.1341,-17.3171,12.8049
-0.008484,-0.314209,-1.183533,14.5122,-16.4024,12.4695
-0.014221,-0.278076,-1.174194,26.7683,-15.3963,11.6768
-0.018921,-0.240845,-1.163208,39.2683,-14.2683,10.3659
-0.022095,-0.201721,-1.150024,50.6098,-13.1402,8.7195
-0.023193,-0.165344,-1.136047,61.2805,-11.9207,6.8293
-0.022583,-0.130249,-1.121277,71.4939,-10.6098,4.6951
-0.020508,-0.096863,-1.105957,80.0000,-9.3293,2.5610
-0.016785,-0.064026,-1.089355,87.4695,-8.0488,0.4878
-0.012207,-0.035095,-1.073486,93.7805,-6.7683,-1.4329
-0.007446,-0.007629,-1.057922,98.8110,-5.4878,-3.2317
-0.003235,0.020020,-1.042419,102.0122,-4.3598,-4.6341
-0.000244,0.045166,-1.028748,103.9329,-3.2927,-5.7622
0.001099,0.069946,-1.016174,104.3293,-2.2866,-6.6463
0.000488,0.094543,-1.005066,103.1402,-1.4634,-7.1951
-0.003113,0.120544,-0.995483,100.8232,-0.7317,-7.5610
-0.009399,0.145264,-0.988770,97.4695,-0.0915,-7.8049
-0.017761,0.169983,-0.984131,92.7134,0.4878,-7.9878
-0.028809,0.195923,-0.982178,87.1341,0.9146,-8.1707
-0.041077,0.220093,-0.983032,80.8841,1.2500,-8.4146
-0.054260,0.243530,-0.986023,73.5671,1.4939,-8.8110
-0.068665,0.266785,-0.992126,66.0061,1.5244,-9.3598
-0.083130,0.288330,-1.000427,58.0793,1.4329,-10.0305
-0.096741,0.306580,-1.010864,49.3902,1.0671,-10.9146
-0.109741,0.322266,-1.023071,40.4878,0.4878,-11.9512
-0.122192,0.334534,-1.037598,31.8902,-0.3659,-13.0793
-0.132629,0.341797,-1.052612,23.2317,-1.4634,-14.2988
-0.141724,0.345093,-1.068054,14.1463,-2.9573,-15.6707
-0.149536,0.343384,-1.084045,5.5793,-4.6646,-16.9817
-0.155334,0.337036,-1.098633,-2.8354,-6.5854,-18.2622
-0.159912,0.327454,-1.112183,-11.5244,-8.8720,-19.5427
-0.163330,0.315125,-1.124451,-19.5122,-11.2195,-20.6707
-0.165710,0.300171,-1.135193,-27.2561,-13.6890,-21.7378
-0.166870,0.284424,-1.143127,-34.7256,-16.2195,-22.7134
-0.167603,0.268433,-1.149231,-42.2561,-18.9634,-23.6890
-0.167908,0.252197,-1.153137,-48.9939,-21.5549,-24.5427
-0.167786,0.237732,-1.154419,-55.3963,-24.1159,-25.3963
-0.167419,0.224426,-1.153748,-61.6768,-26.7073,-26.3110
-0.166748,0.212341,-1.151184,-67.2256,-29.0549,-27.2256
-0.165833,0.201294,-1.146118,-72.4085,-31.3110,-28.1707
-0.164612,0.191956,-1.139099,-77.2561,-33.4146,-29.2073
-0.162964,0.183167,-1.130432,-81.9817,-35.4878,-30.3659
-0.160400,0.173645,-1.119507,-86.0671,-37.2561,-31.5549
-0.157104,0.164001,-1.107605,-89.9085,-38.9024,-32.8049
-0.152954,0.152893,-1.094727,-93.6585,-40.4573,-34.0854
-0.147888,0.139832,-1.081055,-96.9512,-41.7683,-35.3049
-0.141235,0.122314,-1.065857,-100.0915,-42.9573,-36.4329
-0.133728,0.102051,-1.050781,-103.0488,-44.0244,-37.4390
-0.125488,0.078369,-1.035339,-105.9756,-45.0000,-38.2622
-0.116028,0.048889,-1.018555,-108.5366,-45.7927,-38.7805
-0.106445,0.016846,-1.002075,-110.8841,-46.4329,-38.9939
-0.096436,-0.018250,-0.985229,-113.0183,-46.9512,-38.8415
-0.085510,-0.058411,-0.966919,-114.6951,-47.2866,-38.2622
-0.074341,-0.100647,-0.948242,-115.9756,-47.4695,-37.3780
-0.063721,-0.142395,-0.929932,-116.7073,-47.4390,-36.0366
-0.053101,-0.184631,-0.911072,-116.8598,-47.2256,-34.3902
-0.042053,-0.228271,-0.890259,-116.2805,-46.7988,-32.4695
-0.031860,-0.268005,-0.869690,-115.0305,-46.1890,-30.3354
-0.021973,-0.305237,-0.848328,-112.7439,-45.2439,-27.8963
-0.012207,-0.339661,-0.824707,-109.6037,-44.0854,-25.3963
-0.003601,-0.367249,-0.801453,-105.7012,-42.7134,-22.8659
0.004456,-0.390076,-0.777649,-100.5488,-40.9451,-20.2134
0.012146,-0.407593,-0.753357,-94.7256,-38.9634,-17.7744
0.020081,-0.418884,-0.727356,-88.1707,-36.7073,-15.4573
0.027527,-0.422607,-0.702454,-80.9756,-34.2073,-13.2927
0.035156,-0.420898,-0.677612,-72.6220,-31.1890,-11.2500
0.043518,-0.412659,-0.651855,-64.0854,-28.0183,-9.6037
0.051636,-0.399048,-0.627930,-55.1524,-24.5427,-8.1707
0.059753,-0.381409,-0.604431,-45.3963,-20.5488,-6.9207
0.067688,-0.360046,-0.581604,-35.9146,-16.4329,-6.0061
0.075256,-0.333618,-0.558655,-26.4024,-12.0427,-5.2744
0.081665,-0.305359,-0.538452,-16.9207,-7.4085,-4.7256
0.087158,-0.275391,-0.519897,-7.1951,-2.2256,-4.4207
0.091797,-0.242493,-0.503357,1.7378,2.9573,-4.2988
0.094971,-0.210632,-0.490601,10.3354,8.2927,-4.3293
0.097412,-0.178833,-0.480896,18.8110,14.1159,-4.5732
0.099182,-0.147644,-0.474426,26.2500,19.7561,-4.9695
0.100586,-0.116455,-0.472229,33.1098,25.4573,-5.4573
0.101440,-0.088745,-0.474548,39.3293,31.1585,-6.0671
0.101990,-0.062988,-0.480591,45.0610,37.1037,-6.7988
0.101990,-0.038635,-0.491943,49.6037,42.6524,-7.5305
0.101379,-0.018250,-0.507629,53.4756,48.0793,-8.2622
0.100098,0.000061,-0.527283,56.6463,53.5976,-9.0244
0.097473,0.016907,-0.553345,58.8415,58.5671,-9.7256
0.093811,0.031982,-0.583496,60.3659,63.2622,-10.3963
0.088745,0.044312,-0.617004,61.2500,67.8659,-11.0366
0.082336,0.055359,-0.654541,61.5549,72.1341,-11.6463
0.073425,0.065552,-0.698853,61.2500,75.7622,-12.1341
0.063049,0.074036,-0.745178,60.5183,78.9939,-12.6220
0.050964,0.081482,-0.794250,59.3293,81.8293,-13.1402
0.036255,0.088013,-0.849182,57.8354,83.9939,-13.5976
0.020752,0.092834,-0.903809,56.0671,85.6402,-14.0549
0.004272,0.096375,-0.960022,53.9329,86.7073,-14.5732
-0.012878,0.098511,-1.017456,51.7073,87.0732,-15.1220
-0.031250,0.098450,-1.078979,49.2988,86.8598,-15.6402
-0.048584,0.096130,-1.137695,46.7683,86.0976,-16.2195
-0.065369,0.091675,-1.196289,43.9329,84.5122,-16.8293
-0.081909,0.083923,-1.257263,41.0671,82.2866,-17.3780
-0.096252,0.073914,-1.313843,38.0793,79.4817,-17.8963
-0.109497,0.061707,-1.368835,34.7866,75.7622,-18.3537
-0.121643,0.047546,-1.421814,31.4939,71.5549,-18.6890
-0.132874,0.030457,-1.474121,28.1098,66.7988,-18.8720
-0.142212,0.012451,-1.519836,24.6341,61.5244,-18.9024
-0.150452,-0.006287,-1.561829,20.8537,55.3659,-18.7195
-0.157898,-0.026306,-1.600464,17.2256,48.9939,-18.2927
-0.163513,-0.045105,-1.631470,13.5671,42.2256,-17.7134
-0.167603,-0.063110,-1.657593,9.6951,34.6951,-16.8598
-0.169983,-0.080017,-1.678650,6.0061,27.2256,-15.8537
-0.169861,-0.096008,-1.694153,2.3476,19.6037,-14.7256
-0.167053,-0.109497,-1.702576,-1.2500,11.8598,-13.5061
-0.161865,-0.121765,-1.706177,-5.0000,3.6585,-12.1341
-0.153381,-0.133484,-1.703674,-8.4451,-4.0854,-10.7012
-0.142456,-0.143311,-1.695251,-11.8293,-11.7073,-9.2073
-0.129700,-0.152466,-1.682190,-15.2744,-19.4817,-7.5610
-0.114502,-0.161743,-1.662720,-18.4451,-26.5549,-5.8841
-0.098328,-0.170837,-1.639099,-21.5244,-33.3537,-4.0854
-0.082153,-0.179382,-1.612122,-24.6646,-40.0610,-2.0732
-0.065735,-0.187866,-1.582092,-27.7134,-46.3415,0.1220
-0.048645,-0.196289,-1.547058,-30.4878,-51.8293,2.3171
-0.032898,-0.203613,-1.511047,-33.1707,-56.8598,4.6646
-0.017883,-0.210083,-1.473694,-35.8841,-61.5854,7.2866
-0.003357,-0.215332,-1.432983,-38.3232,-65.4573,9.8780
0.008972,-0.218567,-1.393372,-40.6402,-68.8415,12.5305
0.019958,-0.220032,-1.353149,-42.8659,-71.7988,15.3659
0.029419,-0.219299,-1.312439,-44.7561,-74.0244,18.0183
0.037109,-0.215271,-1.268738,-46.4329,-75.8232,20.6402
0.042114,-0.208313,-1.226807,-47.8963,-77.1341,23.1707
0.045349,-0.198547,-1.184631,-49.1159,-78.0183,25.6707
0.046814,-0.184631,-1.140015,-49.9085,-78.3232,27.8354
0.046265,-0.168030,-1.097778,-50.3963,-78.2622,29.7866
0.044556,-0.148926,-1.055847,-50.4573,-77.7134,31.5549
0.041809,-0.127380,-1.014465,-50.0915,-76.7378,32.8963
0.037964,-0.101990,-0.971741,-49.2988,-75.4573,33.9939
0.033569,-0.075806,-0.932251,-48.1402,-73.8720,34.7866
0.028870,-0.048340,-0.893799,-46.3415,-71.7683,35.2744
0.023804,-0.018494,-0.854370,-44.0854,-69.4207,35.3963
0.019165,0.010315,-0.818359,-41.4634,-66.7988,35.2439
0.014709,0.038879,-0.783508,-38.1707,-63.6890,34.7866
0.010620,0.067017,-0.749939,-34.6037,-60.4268,34.0854
0.007019,0.095703,-0.716309,-30.7317,-56.9207,33.1707
0.004333,0.121643,-0.686279,-26.5854,-53.2012,32.1037
0.002258,0.146545,-0.657959,-21.9512,-48.9939,30.7927
0.000671,0.171143,-0.630371,-17.3780,-44.8171,29.3598
-0.000427,0.192993,-0.606750,-12.7439,-40.4573,27.8049
-0.001465,0.213562,-0.585144,-7.8963,-35.6707,26.0671
-0.003113,0.233704,-0.565369,-3.3537,-30.9451,24.3293
-0.005188,0.252625,-0.548096,1.0671,-26.1280,22.5000
-0.008118,0.269104,-0.534790,5.5183,-20.9146,20.5488
-0.011780,0.284668,-0.523987,9.7256,-15.6402,18.5366
-0.016724,0.299927,-0.516113,13.4451,-10.6098,16.6159
-0.022400,0.313293,-0.511963,16.9207,-5.5488,14.6646
-0.028687,0.325684,-0.510498,20.2439,-0.2439,12.6220
-0.035828,0.337524,-0.512085,23.0488,4.6951,10.6707
-0.042847,0.347656,-0.516357,25.5183,9.5122,8.7195
-0.049866,0.356689,-0.523010,27.6829,14.4512,6.6463
-0.056702,0.364807,-0.531860,29.3293,18.9329,4.6646
-0.063660,0.371643,-0.543579,30.5793,23.2317,2.6524
-0.069824,0.376587,-0.556641,31.4939,27.3476,0.6402
-0.075562,0.380066,-0.570801,32.0122,31.3720,-1.4939
-0.080811,0.381897,-0.587036,32.0122,34.9085,-3.5671
-0.085144,0.381836,-0.603760,31.6768,38.2317,-5.5793
-0.088806,0.380432,-0.621765,30.8841,41.3720,-7.6524
-0.091919,0.377625,-0.640808,29.7256,44.0244,-9.5427
-0.094666,0.372864,-0.662842,28.3232,46.4024,-11.3415
-0.096985,0.366760,-0.685547,26.6463,48.5366,-12.9878
-0.099304,0.359375,-0.710327,24.6341,50.4268,-14.4817
-0.102173,0.349915,-0.739807,22.5000,51.9207,-15.6402
-0.105591,0.339600,-0.770874,20.3049,53.1707,-16.6159
-0.109680,0.328125,-0.804565,17.9878,54.1463,-17.3780
-0.114746,0.315430,-0.840698,15.8232,54.7866,-17.8354
-0.121216,0.300415,-0.881531,13.7500,55.1829,-18.1098
-0.128418,0.284729,-0.922485,11.7988,55.2744,-18.2012
-0.136353,0.267883,-0.964722,10.0000,55.0915,-18.1098
-0.145447,0.248657,-1.010315,8.5671,54.6341,-17.8659
-0.154663,0.229248,-1.054199,7.3476,53.9024,-17.5305
-0.164062,0.208862,-1.098083,6.3415,52.7744,-17.0427
-0.173950,0.186401,-1.143677,5.6707,51.3415,-16.4634
-0.183716,0.163208,-1.188477,5.1829,49.6341,-15.8232
-0.192810,0.140564,-1.229492,4.9390,47.4695,-15.0610
-0.201538,0.117676,-1.268982,4.9695,45.0305,-14.2683
-0.210144,0.093445,-1.307617,5.1524,42.2866,-13.4451
-0.217590,0.070618,-1.341125,5.4878,39.2683,-12.6220
-0.224060,0.048035,-1.371521,6.0061,35.7317,-11.7073
-0.229248,0.025085,-1.398926,6.6463,32.0427,-10.8537
-0.232544,0.004272,-1.420288,7.3476,28.1402,-10.0000
-0.234253,-0.015503,-1.437622,8.1402,23.7500,-9.1768
-0.234192,-0.034241,-1.450623,8.9024,19.3598,-8.4451
-0.231567,-0.052124,-1.458496,9.6341,14.8171,-7.7744
-0.226562,-0.067200,-1.460571,10.3354,10.2134,-7.1951
-0.219604,-0.080383,-1.458374,11.0366,5.2744,-6.6768
-0.209839,-0.091797,-1.450378,11.6159,0.5793,-6.2500
-0.198425,-0.100220,-1.437195,12.1341,-4.0854,-5.8841
-0.185303,-0.106506,-1.419434,12.6220,-8.8415,-5.5488
-0.170532,-0.110535,-1.397095,13.0183,-13.2317,-5.2744
-0.153137,-0.112061,-1.367615,13.3232,-17.4085,-5.0000
-0.135132,-0.110840,-1.334290,13.5671,-21.3720,-4.6951
-0.116272,-0.107727,-1.296753,13.6585,-25.1524,-4.3598
-0.095825,-0.102051,-1.252014,13.6585,-28.3841,-3.9634
-0.076111,-0.094604,-1.204956,13.5061,-31.2805,-3.5061
-0.056580,-0.085632,-1.154907,13.2012,-33.7500,-2.9878
-0.037598,-0.075439,-1.102417,12.7744,-35.5488,-2.4390
-0.018799,-0.063416,-1.044678,12.2561,-36.8902,-1.8902
-0.002319,-0.051025,-0.988220,11.6159,-37.5915,-1.2805
0.013062,-0.038025,-0.931030,10.9451,-37.7439,-0.7012
0.027710,-0.023743,-0.870911,10.2439,-37.1646,-0.1829
0.040100,-0.009949,-0.814697,9.5427,-36.0061,0.3049
0.051270,0.003967,-0.759888,8.8415,-34.0549,0.7317
0.061646,0.018799,-0.705261,8.1707,-31.4939,1.0366
0.070862,0.033691,-0.653687,7.5305,-28.3841,1.2500
0.078247,0.047974,-0.609192,6.8902,-24.4512,1.3415
0.084351,0.062256,-0.569031,6.3110,-20.0915,1.2805
0.088989,0.076965,-0.533142,5.7622,-15.3659,1.1280
0.091553,0.090210,-0.505432,5.2744,-10.2439,0.8841
0.092590,0.102844,-0.482971,4.8476,-4.5122,0.4878
0.091614,0.115173,-0.466187,4.4817,1.1890,0.0000
0.088684,0.125854,-0.456787,4.1768,7.0427,-0.5793
0.084290,0.135681,-0.452271,3.9024,13.2012,-1.3110
0.078369,0.144470,-0.452515,3.7195,19.0549,-2.0732
0.070496,0.152405,-0.458740,3.5061,24.7561,-2.8963
0.061584,0.158813,-0.470154,3.3232,30.3354,-3.7805
0.051880,0.164368,-0.485840,3.0793,35.8841,-4.8171
0.040649,0.168823,-0.507751,2.8049,40.8232,-5.8841
0.029236,0.171570,-0.533630,2.4390,45.4573,-7.0122
0.017395,0.172974,-0.563477,1.9512,49.8476,-8.2317
0.005188,0.172668,-0.596985,1.4329,53.5671,-9.4512
-0.008240,0.170105,-0.636841,0.8232,56.8598,-10.6098
-0.021362,0.165344,-0.678833,0.1524,59.7256,-11.7683
-0.034790,0.158936,-0.723999,-0.6098,62.1646,-12.8659
-0.049561,0.150146,-0.775269,-1.3720,63.9329,-13.7805
-0.064148,0.140137,-0.826965,-2.1341,65.2134,-14.6037
-0.079468,0.129028,-0.880615,-2.8963,65.9451,-15.3049
-0.095459,0.116943,-0.935913,-3.5366,66.0366,-15.8232
-0.113281,0.103516,-0.995544,-4.1159,65.6707,-16.2500
-0.130920,0.090088,-1.053040,-4.5732,64.6646,-16.6159
-0.149048,0.076416,-1.110657,-4.9390,63.2012,-16.9512
-0.168396,0.061829,-1.170837,-5.0610,61.2195,-17.2866
-0.186829,0.047729,-1.226868,-5.0610,58.7805,-17.6220
-0.204834,0.033447,-1.281677,-4.8171,55.6402,-18.0183
-0.222595,0.017944,-1.337708,-4.3902,52.1037,-18.5061
-0.239136,0.002014,-1.392090,-3.7805,48.1707,-19.0549
-0.252869,-0.013611,-1.441406,-2.8963,43.4756,-19.6951
-0.264709,-0.029602,-1.488403,-1.7988,38.5061,-20.3963
-0.274109,-0.047119,-1.534119,-0.5793,33.1402,-21.0976
-0.279846,-0.064209,-1.573242,0.8232,27.4390,-21.7988
-0.282654,-0.081421,-1.608337,2.4390,20.9756,-22.5305
-0.281372,-0.099121,-1.638916,4.0854,14.4512,-23.1707
-0.276062,-0.115356,-1.661560,5.7927,7.6829,-23.7500
-0.267639,-0.130859,-1.678345,7.5610,0.2744,-24.2378
-0.256226,-0.145447,-1.689087,9.2073,-6.9207,-24.5732
-0.240723,-0.159546,-1.692688,10.7927,-14.2378,-24.7866
-0.222900,-0.171448,-1.688782,12.2866,-21.5549,-24.8476
-0.202942,-0.182129,-1.679199,13.7195,-29.1768,-24.7561
-0.179749,-0.191956,-1.662109,14.8780,-36.2805,-24.4817
-0.156006,-0.200134,-1.639771,15.8841,-43.2012,-24.0854
-0.131165,-0.207458,-1.613037,16.7073,-50.1524,-23.4146
-0.105408,-0.213806,-1.582458,17.2256,-56.3720,-22.5915
-0.077637,-0.219055,-1.545898,17.5305,-62.2256,-21.5549
-0.051086,-0.222534,-1.507202,17.5915,-67.7134,-20.3354
-0.024841,-0.224609,-1.465942,17.3476,-72.8659,-18.7805
0.001282,-0.224731,-1.419556,16.8293,-77.1951,-17.1037
0.024414,-0.222900,-1.373169,16.0671,-81.0061,-15.2439
0.045532,-0.219238,-1.325195,15.0305,-84.2988,-13.1098
0.064331,-0.213806,-1.275818,13.8110,-86.7378,-10.9756
0.080811,-0.205627,-1.222107,12.4390,-88.5671,-8.7805
0.093140,-0.195740,-1.169983,10.8841,-89.7256,-6.4634
0.103027,-0.184204,-1.117188,9.2378,-90.2744,-4.2378
0.110718,-0.170044,-1.061035,7.6524,-90.0915,-2.1951
0.115601,-0.154846,-1.007690,6.0366,-89.3598,-0.2744
0.119141,-0.138489,-0.954712,4.3902,-87.8963,1.5854
0.121460,-0.119751,-0.899780,2.8963,-85.9146,3.1707
0.122864,-0.100159,-0.845886,1.5244,-83.4756,4.6037
0.123352,-0.080627,-0.796326,0.1829,-80.3963,5.9451
0.123413,-0.060486,-0.748230,-0.9146,-76.9817,7.0427
0.123169,-0.038757,-0.699707,-1.8598,-73.2622,8.0183
0.122742,-0.017822,-0.655945,-2.7134,-69.1768,8.8415
0.122192,0.003174,-0.614258,-3.4146,-64.4817,9.5732
0.121399,0.024902,-0.573120,-3.9024,-59.6646,10.0610
0.120300,0.044922,-0.536987,-4.2988,-54.5732,10.4573
0.118896,0.064087,-0.503296,-4.6037,-48.8720,10.7317
0.116943,0.082336,-0.472168,-4.7561,-43.2012,10.8232
0.114136,0.100159,-0.443054,-4.8780,-37.3171,10.8232
0.110718,0.115723,-0.419006,-4.9390,-31.2500,10.7012
0.106506,0.130066,-0.398132,-5.0305,-24.6646,10.4878
0.101013,0.143677,-0.380920,-5.0915,-18.2622,10.1524
0.094849,0.155029,-0.369324,-5.1524,-11.7988,9.7561
0.088074,0.165283,-0.362000,-5.2439,-4.9085,9.2683
0.080750,0.174561,-0.359131,-5.3049,1.6463,8.6890
0.072388,0.182922,-0.361816,-5.3963,8.1707,8.0488
0.063904,0.189514,-0.369812,-5.4573,14.6037,7.3780
0.055176,0.195007,-0.381958,-5.5488,21.2195,6.5549
0.045654,0.199158,-0.399170,-5.5793,27.2866,5.7317
0.036438,0.201355,-0.419250,-5.6402,33.1402,4.8476
0.027161,0.202209,-0.441406,-5.7927,38.9634,3.8415
0.018005,0.201782,-0.465027,-6.0061,44.0854,2.8354
0.008850,0.199585,-0.490906,-6.3415,48.8720,1.8293
0.000854,0.195923,-0.516296,-6.9207,53.4451,0.7927
-0.006470,0.191223,-0.541992,-7.7439,57.5610,-0.2744
-0.013062,0.185364,-0.570129,-8.7805,61.0061,-1.2195
-0.018311,0.179199,-0.597900,-10.0305,64.0244,-2.1037
-0.022827,0.173096,-0.627258,-11.5854,66.6463,-2.8963
-0.027283,0.167236,-0.661682,-13.2317,68.6585,-3.5366
-0.031799,0.162109,-0.699158,-14.9390,70.2439,-4.0549
-0.036499,0.158386,-0.738892,-16.6463,71.4024,-4.4207
-0.042114,0.155640,-0.782349,-18.1098,72.0122,-4.6341
-0.050110,0.153870,-0.833191,-19.3293,72.2561,-4.7256
-0.059753,0.153198,-0.885986,-20.2134,72.1341,-4.7561
-0.071350,0.152832,-0.941895,-20.6098,71.5549,-4.7866
-0.086060,0.152161,-1.003906,-20.3963,70.5793,-4.8476
-0.102173,0.151001,-1.065002,-19.7561,69.2683,-5.0000
-0.119690,0.148804,-1.127075,-18.4756,67.5000,-5.3659
-0.138245,0.145325,-1.189453,-16.7378,65.4268,-5.9146
-0.158325,0.139404,-1.254700,-14.6341,63.0793,-6.6768
-0.177368,0.131531,-1.315613,-12.1951,60.4268,-7.6524
-0.195862,0.121643,-1.375122,-9.3293,57.2561,-8.9329
-0.213623,0.108459,-1.435486,-6.3415,53.9024,-10.3659
-0.228516,0.093384,-1.490051,-3.2012,50.2744,-11.9512
-0.241272,0.076416,-1.541931,0.2134,46.0366,-13.7195
-0.251587,0.057861,-1.590576,3.5061,41.6463,-15.4268
-0.258911,0.036682,-1.636780,6.7988,36.9817,-17.1037
-0.262268,0.015503,-1.675232,10.0610,31.9817,-18.6890
-0.262634,-0.005981,-1.708862,13.3841,26.3110,-20.1524
-0.258911,-0.027954,-1.737488,16.4024,20.5793,-21.3415
-0.251465,-0.047852,-1.758240,19.2073,14.5732,-22.3171
-0.241028,-0.066467,-1.773804,21.8902,7.8659,-23.0183
-0.227783,-0.083557,-1.783997,24.1768,1.2500,-23.4146
-0.210693,-0.099426,-1.787964,26.1890,-5.5488,-23.5366
-0.191772,-0.112305,-1.785217,27.9878,-12.8963,-23.3232
-0.171143,-0.123291,-1.777466,29.5122,-20.3049,-22.8659
-0.147827,-0.132690,-1.763000,30.6098,-27.3476,-22.1037
-0.124573,-0.139526,-1.743652,31.4329,-34.3598,-21.0671
-0.101135,-0.144775,-1.719666,31.9512,-41.5549,-19.6037
-0.076965,-0.148132,-1.688904,32.1037,-48.2012,-17.8659
-0.053589,-0.149658,-1.654053,31.9207,-54.5732,-15.8841
-0.032837,-0.148865,-1.616516,31.2805,-60.8537,-13.4451
-0.013611,-0.146362,-1.576050,30.2744,-66.3720,-10.8841
0.004150,-0.141541,-1.529907,28.9024,-71.4634,-8.1402
0.018372,-0.134949,-1.483337,27.1951,-76.0671,-5.3049
0.030334,-0.127014,-1.434753,25.0000,-80.2134,-2.2866
0.039978,-0.117249,-1.381531,22.5305,-83.4756,0.5793
0.046448,-0.106689,-1.329407,19.8476,-86.1281,3.3537
0.050903,-0.095337,-1.276306,16.7073,-88.1098,6.0976
0.053589,-0.083435,-1.222717,13.5671,-89.2683,8.4756
0.054565,-0.070190,-1.165955,10.2744,-89.8476,10.6402
0.053833,-0.057251,-1.112366,6.9512,-89.8781,12.5915
0.052307,-0.044006,-1.059326,3.4451,-89.2683,14.3293
0.049805,-0.029785,-1.004517,0.1220,-88.1098,15.6707
0.046875,-0.016113,-0.953857,-3.0793,-86.5549,16.7988
0.043762,-0.002502,-0.904602,-6.2805,-84.4512,17.6829
0.040649,0.010986,-0.856628,-9.1159,-82.0122,18.2317
0.037659,0.024658,-0.808105,-11.7683,-79.3293,18.5976
0.035156,0.036987,-0.764343,-14.1768,-76.3415,18.7805
0.032959,0.048584,-0.722595,-16.4024,-72.8659,18.7805
0.031189,0.059509,-0.681580,-18.2012,-69.2988,18.5976
0.029968,0.068481,-0.645874,-19.7256,-65.4573,18.2927
0.029053,0.076111,-0.612915,-21.0061,-61.1281,17.8354
0.028198,0.082214,-0.582886,-21.8598,-56.7378,17.2866
0.027039,0.086487,-0.555542,-22.4695,-52.1646,16.7073
0.025574,0.088501,-0.533875,-22.7744,-47.1037,16.0671
0.023560,0.088989,-0.515747,-22.8659,-41.8598,15.4268
0.020447,0.087708,-0.501038,-22.6524,-36.7683,14.8476
0.016357,0.084839,-0.491333,-22.2561,-31.5549,14.2988
0.011353,0.080872,-0.484985,-21.6463,-26.0061,13.7805
0.005066,0.075745,-0.482727,-20.8841,-20.7317,13.3537
-0.002075,0.069885,-0.484070,-20.0305,-15.4878,12.9573
-0.009766,0.063721,-0.489502,-19.0244,-10.0305,12.6220
-0.018066,0.057312,-0.498352,-17.9573,-5.0000,12.3171
-0.027710,0.050171,-0.512451,-16.8293,-0.0915,12.0427
-0.037720,0.043274,-0.530518,-15.6402,4.6341,11.7683
-0.048401,0.036316,-0.552368,-14.2683,9.2683,11.4939
-0.060974,0.029114,-0.581055,-12.8659,13.3537,11.2195
-0.074097,0.022644,-0.613464,-11.3720,17.1037,10.9451
-0.088379,0.016541,-0.650269,-9.6646,20.5793,10.6402
-0.103821,0.010986,-0.691589,-7.8659,23.3232,10.2744
-0.121643,0.005859,-0.740784,-5.9146,25.6098,9.8780
-0.139954,0.001709,-0.792297,-3.7500,27.4390,9.3902
-0.159180,-0.002075,-0.847412,-1.1585,28.6585,8.7500
-0.180359,-0.005798,-0.909302,1.5854,29.1768,7.9878
-0.201050,-0.009216,-0.970825,4.5732,29.1463,7.1341
-0.221802,-0.012878,-1.033752,8.0793,28.4146,6.0671
-0.242371,-0.016785,-1.097290,11.7378,27.0427,4.9390
-0.263123,-0.021729,-1.163757,15.6098,25.1220,3.6890
-0.281555,-0.027405,-1.225403,19.6646,22.7134,2.4085
-0.298523,-0.033936,-1.284851,24.1159,19.4817,0.9756
-0.313843,-0.042053,-1.342712,28.4451,15.8537,-0.4268
-0.325684,-0.050781,-1.392395,32.7744,11.7683,-1.7683
-0.335083,-0.060364,-1.436768,37.2256,6.9207,-3.1098
-0.341675,-0.070740,-1.475220,41.2500,1.8902,-4.2378
-0.344666,-0.082153,-1.507263,45.0000,-3.4451,-5.2439
-0.343506,-0.093323,-1.529297,48.5366,-9.4207,-6.0671
-0.338928,-0.104187,-1.544617,51.6463,-15.6098,-6.6463
-0.329346,-0.114746,-1.552917,54.0854,-21.6768,-6.9512
-0.315857,-0.123779,-1.553284,56.0671,-27.8354,-7.0122
-0.298889,-0.131653,-1.548279,57.6524,-34.3293,-6.7988
-0.276611,-0.137939,-1.536255,58.6281,-40.4268,-6.3110
-0.251343,-0.142334,-1.519104,59.2073,-46.4024,-5.6098
-0.224243,-0.144348,-1.497070,59.3598,-52.4695,-4.6341
-0.195496,-0.144470,-1.470642,59.0549,-57.8963,-3.4756
-0.164612,-0.142090,-1.436951,58.4756,-63.0183,-2.1646
-0.135437,-0.137390,-1.399414,57.5305,-67.7744,-0.7012
-0.107483,-0.130432,-1.357727,56.1585,-72.2256,1.0061
-0.080933,-0.120056,-1.309082,54.4512,-75.8841,2.7744
-0.058960,-0.107483,-1.259094,52.4390,-78.9939,4.6037
-0.040161,-0.092651,-1.206421,50.0000,-81.5549,6.5244
-0.024719,-0.075623,-1.151672,47.4085,-83.2622,8.3537
-0.012512,-0.054993,-1.091919,44.6341,-84.3598,10.0915
-0.004700,-0.033020,-1.034058,41.7073,-84.8476,11.6768
0.000610,-0.009460,-0.976135,38.5671,-84.5427,13.1402
0.003906,0.016907,-0.915894,35.5183,-83.5061,14.2378
0.005005,0.043091,-0.860168,32.5000,-81.8902,15.1220
0.005066,0.069702,-0.806396,29.4512,-79.5122,15.7012
0.004395,0.096375,-0.755066,26.6768,-76.5854,15.9146
0.003174,0.124084,-0.705017,24.0549,-73.2012,15.8841
0.001770,0.149475,-0.661865,21.5854,-69.4207,15.5793
0.000244,0.173889,-0.622620,19.2378,-64.9695,14.9390
-0.001648,0.197632,-0.586609,17.2561,-60.3354,14.0549
-0.003723,0.218140,-0.557556,15.4268,-55.4573,12.9573
-0.006287,0.236816,-0.532471,13.6890,-50.0915,11.5549
-0.009460,0.253479,-0.511047,12.1951,-44.7866,10.0305
-0.014221,0.268005,-0.492798,10.7622,-39.4207,8.3841
-0.020020,0.278748,-0.479309,9.3598,-33.6585,6.5244
-0.026855,0.287048,-0.468689,7.9573,-27.9268,4.6037
-0.035400,0.292725,-0.461121,6.6159,-22.4695,2.7439
-0.044678,0.295410,-0.457520,5.2744,-17.1037,0.8537
-0.054565,0.295959,-0.456848,3.8110,-11.5244,-1.1280
-0.065369,0.294067,-0.460327,2.3476,-6.3415,-2.9573
-0.076233,0.290161,-0.467041,0.8537,-1.2805,-4.7561
-0.086426,0.284363,-0.477417,-0.7622,3.8415,-6.5854
-0.096375,0.277100,-0.490845,-2.3171,8.5061,-8.2317
-0.106628,0.267517,-0.508423,-3.9329,12.9878,-9.8476
-0.116150,0.256775,-0.527954,-5.5793,17.2866,-11.3720
-0.125427,0.244690,-0.549133,-7.3171,21.4939,-12.8963
-0.135071,0.230286,-0.572937,-9.0244,25.2134,-14.2073
-0.143921,0.215149,-0.596619,-10.7317,28.6890,-15.4573
-0.152405,0.198975,-0.620911,-12.5915,31.9817,-16.6463
-0.160461,0.181946,-0.645874,-14.3598,34.7561,-17.5915
-0.168335,0.163269,-0.673340,-16.1280,37.2561,-18.4451
-0.175110,0.145020,-0.700623,-17.8963,39.4512,-19.1159
-0.181396,0.126709,-0.729126,-19.6341,41.3720,-19.6341
-0.187683,0.107422,-0.761353,-21.1890,42.8049,-19.9390
-0.193298,0.089355,-0.794006,-22.5610,43.9634,-20.0915
-0.198914,0.071533,-0.828491,-23.6890,44.7561,-20.0915
-0.204773,0.054138,-0.864685,-24.4817,45.0915,-19.9085
-0.211487,0.036255,-0.904541,-24.9085,45.1524,-19.6341
-0.218262,0.019714,-0.943726,-25.0305,44.8780,-19.2683
-0.225464,0.003540,-0.983459,-24.6951,44.1768,-18.8415
-0.233276,-0.013184,-1.025085,-23.9024,43.1098,-18.3841
-0.240784,-0.028625,-1.063904,-22.7744,41.7378,-17.9573
-0.248169,-0.043823,-1.101318,-21.1585,39.9390,-17.5000
-0.255066,-0.058594,-1.136963,-19.2683,37.8659,-17.1341
-0.261353,-0.073730,-1.171448,-17.1341,35.5183,-16.7988
-0.266052,-0.087524,-1.200806,-14.6037,32.7439,-16.4939
-0.269470,-0.100891,-1.227051,-11.9512,29.7561,-16.2195
-0.271057,-0.113953,-1.250244,-9.2378,26.6768,-15.9756
-0.270569,-0.125305,-1.267822,-6.4939,23.4756,-15.7012
-0.268250,-0.135559,-1.281677,-3.5671,19.9390,-15.4268
-0.263489,-0.144409,-1.291077,-0.7927,16.4634,-15.1220
-0.256897,-0.151306,-1.296387,1.9207,12.9878,-14.8171
-0.248596,-0.155090,-1.296509,4.6341,9.2988,-14.4512
-0.238831,-0.156006,-1.292908,7.0427,5.8537,-14.1463
-0.227234,-0.152588,-1.284546,9.2683,2.5305,-13.8415
-0.215271,-0.145386,-1.272339,11.3110,-0.7317,-13.5976
-0.203125,-0.134766,-1.257141,13.1707,-3.9329,-13.4146
-0.190674,-0.119263,-1.238037,14.6341,-6.7683,-13.3841
-0.179443,-0.100525,-1.217102,15.8841,-9.4207,-13.4756
-0.169189,-0.078918,-1.194519,16.8598,-11.9207,-13.7500
-0.160095,-0.054871,-1.170532,17.4695,-13.9939,-14.1463
-0.152344,-0.026794,-1.143799,17.8354,-15.8232,-14.7256
-0.146729,0.001892,-1.117310,17.9268,-17.4085,-15.4268
-0.142517,0.031860,-1.090454,17.5915,-18.7805,-16.3110
-0.139526,0.064392,-1.062134,16.9207,-19.7866,-17.3476
-0.138062,0.095581,-1.035400,15.8537,-20.5793,-18.5061
-0.137146,0.126221,-1.009155,14.2378,-21.1280,-19.9085
-0.136536,0.155518,-0.983704,12.1646,-21.4024,-21.3415
-0.135742,0.183350,-0.958557,9.6341,-21.4939,-22.8354
-0.134827,0.206360,-0.936462,6.6463,-21.3720,-24.3902
-0.133484,0.225952,-0.916199,2.8659,-21.0671,-26.0366
-0.131531,0.241638,-0.897400,-1.3415,-20.5793,-27.5305
-0.129272,0.251587,-0.882019,-6.0366,-20.0000,-28.9329
-0.126953,0.257751,-0.868530,-11.6159,-19.2378,-30.2744
-0.124817,0.260315,-0.856873,-17.4390,-18.4451,-31.3720
-0.123352,0.259338,-0.846802,-23.6280,-17.5915,-32.2866
-0.122681,0.255371,-0.839355,-30.6098,-16.6768,-33.0488
-0.122803,0.249756,-0.833374,-37.8963,-15.7317,-33.6585
-0.124023,0.242859,-0.828857,-45.0305,-14.8476,-34.0549
-0.126343,0.235596,-0.826050,-52.3171,-13.9634,-34.3598
-0.129395,0.228577,-0.824402,-59.9695,-13.0488,-34.6037
-0.133362,0.221924,-0.824036,-67.1951,-12.2561,-34.7866
-0.137817,0.216003,-0.824646,-74.2378,-11.4634,-34.9390
-0.142456,0.211487,-0.826355,-81.3415,-10.6707,-35.1524
-0.147339,0.207825,-0.828796,-87.7134,-9.9695,-35.4268
-0.152405,0.204773,-0.831909,-93.7195,-9.3293,-35.7927
-0.157227,0.202515,-0.835266,-99.3293,-8.6890,-36.2195
-0.161743,0.200439,-0.838745,-104.7866,-8.0488,-36.8293
-0.166138,0.197693,-0.842285,-109.4512,-7.5000,-37.5610
-0.169739,0.193970,-0.845581,-113.8110,-6.9817,-38.3537
-0.172791,0.188477,-0.848877,-117.9573,-6.4634,-39.2988
-0.175049,0.180542,-0.852173,-121.5244,-5.9756,-40.2439
-0.176208,0.167358,-0.855896,-124.7866,-5.5183,-41.1890
-0.175903,0.150024,-0.859619,-127.8354,-5.0610,-42.0427
-0.174255,0.127869,-0.863586,-130.7317,-4.5732,-42.7134
-0.170654,0.097778,-0.868164,-133.1707,-4.1463,-43.1098
-0.165466,0.062988,-0.872986,-135.3659,-3.6890,-43.2317
-0.158997,0.023621,-0.878052,-137.2866,-3.1707,-42.8659
-0.151550,-0.019653,-0.883118,-138.6890,-2.6524,-42.0427
-0.142883,-0.068604,-0.888306,-139.7256,-2.0732,-40.7927
-0.134033,-0.117493,-0.893127,-140.3049,-1.4634,-39.1463
-0.125122,-0.166809,-0.898010,-140.3049,-0.7012,-36.9207
-0.116089,-0.217651,-0.903442,-139.6342,0.1220,-34.3902
-0.108032,-0.263855,-0.908752,-138.3537,1.0366,-31.5549
-0.100708,-0.307373,-0.914307,-136.1890,2.1037,-28.3232
-0.094055,-0.348450,-0.920654,-133.2622,3.2012,-25.0915
-0.088257,-0.385315,-0.927429,-129.6951,4.3902,-21.7683
-0.083862,-0.414734,-0.934326,-124.9695,5.7317,-18.2622
-0.080383,-0.439453,-0.941467,-119.5427,7.1341,-14.8171
-0.077637,-0.459106,-0.949036,-113.5366,8.5061,-11.6463
-0.076050,-0.471558,-0.956055,-106.9512,9.9390,-8.6280
-0.074951,-0.479126,-0.962769,-99.2073,11.4634,-5.6402
-0.073914,-0.480896,-0.969238,-91.2195,12.9878,-3.0488
-0.072998,-0.476929,-0.974731,-82.7744,14.5122,-0.6098
-0.071716,-0.468628,-0.979492,-73.3537,16.1585,1.6768
-0.070068,-0.456238,-0.983521,-64.0244,17.7439,3.6280
-0.067993,-0.438416,-0.986755,-54.4207,19.3902,5.3659
-0.065857,-0.417297,-0.988708,-44.6341,21.0366,6.8902
-0.063660,-0.393250,-0.989441,-34.2073,22.8049,8.2927
-0.061707,-0.364563,-0.988525,-24.2683,24.5122,9.3902
-0.060120,-0.334534,-0.986267,-14.4512,26.2195,10.2744
-0.058777,-0.303040,-0.982910,-4.3902,28.0183,10.9451
-0.057739,-0.270386,-0.978699,4.7866,29.7256,11.3720
