# fs_hz=500.0 n=2048
ax,ay,az,gx,gy,gz
0.065308,0.144165,-0.920105,4.5427,-11.7988,15.6402
0.065308,0.144287,-0.920532,4.5427,-11.7988,15.6402
0.065247,0.144592,-0.921387,4.6037,-11.7378,15.7012
0.065247,0.145264,-0.922913,4.6646,-11.6463,15.7927
0.065186,0.146118,-0.924988,4.7561,-11.5549,15.9146
0.065063,0.147278,-0.927490,4.8171,-11.4634,16.0976
0.065002,0.148743,-0.930603,4.9085,-11.3720,16.3110
0.064758,0.150696,-0.934448,4.9695,-11.2805,16.5244
0.064392,0.152954,-0.938843,5.0305,-11.2195,16.8293
0.063843,0.155457,-0.943359,5.0305,-11.1890,17.1341
0.062988,0.158325,-0.948181,5.0000,-11.2195,17.4085
0.061951,0.161194,-0.952759,4.9085,-11.3110,17.7134
0.060669,0.164185,-0.957336,4.7866,-11.4634,18.0488
0.059082,0.167297,-0.961975,4.6341,-11.6768,18.3537
0.057312,0.170349,-0.966492,4.4512,-11.9207,18.6280
0.055359,0.173157,-0.970459,4.2378,-12.2256,18.9329
0.053345,0.175842,-0.974182,3.9939,-12.5610,19.2073
0.051147,0.178467,-0.977600,3.7500,-12.9268,19.4512
0.049011,0.180725,-0.980286,3.5061,-13.3232,19.6951
0.046814,0.182739,-0.982544,3.2622,-13.7805,19.9085
0.044556,0.184631,-0.984253,3.0183,-14.2378,20.1220
0.042419,0.186218,-0.985229,2.7744,-14.6951,20.3049
0.040283,0.187683,-0.985535,2.5305,-15.1829,20.4573
0.038208,0.188965,-0.985291,2.2866,-15.6402,20.6098
0.036072,0.190186,-0.984253,2.0732,-16.0976,20.7622
0.034119,0.191223,-0.982605,1.8293,-16.5549,20.8841
0.032227,0.192200,-0.980469,1.5854,-16.9817,21.0366
0.030334,0.193176,-0.977783,1.3415,-17.3780,21.1280
0.028625,0.193970,-0.974670,1.1280,-17.7134,21.2500
0.026917,0.194702,-0.971252,0.8841,-18.0488,21.3415
0.025330,0.195312,-0.967651,0.6707,-18.2927,21.4329
0.023560,0.195862,-0.963501,0.4573,-18.5061,21.4939
0.021912,0.196167,-0.959351,0.2744,-18.6890,21.5854
0.020203,0.196289,-0.955078,0.0915,-18.8415,21.6463
0.018433,0.196228,-0.950500,-0.0915,-18.9024,21.7073
0.016663,0.196106,-0.946106,-0.2439,-18.9329,21.7378
0.014832,0.195801,-0.941711,-0.3963,-18.9329,21.7988
0.013000,0.195435,-0.937378,-0.4878,-18.8720,21.7988
0.011047,0.194885,-0.932922,-0.6098,-18.7805,21.7988
0.009216,0.194275,-0.928894,-0.6707,-18.6280,21.7988
0.007385,0.193665,-0.925049,-0.7317,-18.4451,21.7683
0.005493,0.192871,-0.921204,-0.7622,-18.2317,21.7073
0.003723,0.192139,-0.917786,-0.7622,-18.0183,21.6463
0.001892,0.191223,-0.914551,-0.7317,-17.7744,21.5854
0.000061,0.190308,-0.911377,-0.6707,-17.5000,21.4939
-0.001709,0.189331,-0.908508,-0.6098,-17.2256,21.4329
-0.003296,0.188416,-0.906189,-0.5183,-16.9207,21.3415
-0.004822,0.187622,-0.904175,-0.3963,-16.6159,21.2500
-0.006409,0.186951,-0.902527,-0.2744,-16.3110,21.1585
-0.007812,0.186401,-0.901489,-0.1524,-15.9756,21.0976
-0.009277,0.185974,-0.900940,0.0000,-15.6402,21.0061
-0.010864,0.185730,-0.900940,0.1829,-15.3049,20.9146
-0.012451,0.185730,-0.901550,0.3659,-15.0000,20.8232
-0.014221,0.185852,-0.902588,0.5793,-14.6646,20.7317
-0.016113,0.186096,-0.904114,0.8232,-14.3293,20.6402
-0.018311,0.186523,-0.906311,1.0671,-14.0244,20.5183
-0.020508,0.187012,-0.908875,1.3110,-13.7500,20.4268
-0.022888,0.187561,-0.911865,1.6159,-13.4451,20.2744
-0.025452,0.188049,-0.915344,1.8902,-13.2012,20.1220
-0.027893,0.188416,-0.918945,2.1646,-12.9878,19.9695
-0.030334,0.188721,-0.922668,2.4695,-12.8049,19.8171
-0.032776,0.188721,-0.926453,2.7744,-12.6829,19.6341
-0.035278,0.188477,-0.930359,3.0488,-12.6220,19.4512
-0.037537,0.187866,-0.933838,3.3232,-12.5915,19.2683
-0.039734,0.187012,-0.937134,3.6280,-12.6220,19.0549
-0.041870,0.185730,-0.940125,3.8415,-12.7439,18.8720
-0.043701,0.184265,-0.942505,4.0549,-12.8963,18.6890
-0.045471,0.182617,-0.944397,4.2378,-13.1402,18.5061
-0.047119,0.180908,-0.945862,4.3598,-13.4146,18.3537
-0.048584,0.179016,-0.946716,4.4207,-13.7195,18.2317
-0.049805,0.177185,-0.946838,4.4512,-14.0854,18.1098
-0.050903,0.175354,-0.946472,4.4512,-14.4817,17.9878
-0.051880,0.173523,-0.945374,4.3902,-14.8780,17.8963
-0.052612,0.171936,-0.943726,4.2988,-15.2744,17.8354
-0.053223,0.170410,-0.941650,4.2073,-15.7012,17.7744
-0.053772,0.169006,-0.939026,4.0549,-16.0671,17.7134
-0.054199,0.167725,-0.936218,3.9024,-16.4024,17.6829
-0.054504,0.166809,-0.933167,3.7195,-16.7073,17.6829
-0.054810,0.165955,-0.930054,3.5061,-16.9512,17.6524
-0.055176,0.165222,-0.926758,3.2927,-17.1646,17.6220
-0.055481,0.164734,-0.923584,3.0488,-17.3476,17.6220
-0.055847,0.164368,-0.920532,2.8049,-17.4695,17.5915
-0.056152,0.164062,-0.917480,2.5915,-17.5305,17.5610
-0.056458,0.163879,-0.914795,2.3780,-17.5610,17.5305
-0.056824,0.163696,-0.912292,2.1646,-17.5610,17.5000
-0.057129,0.163513,-0.909973,2.0122,-17.5000,17.4390
-0.057556,0.163330,-0.907898,1.8598,-17.4085,17.3780
-0.058044,0.163147,-0.906189,1.7378,-17.2866,17.3171
-0.058533,0.162964,-0.904724,1.6768,-17.1341,17.2256
-0.059082,0.162598,-0.903503,1.6159,-16.9817,17.1341
-0.059753,0.162231,-0.902588,1.6159,-16.7988,17.0122
-0.060425,0.161743,-0.901917,1.6159,-16.5854,16.8902
-0.061218,0.161194,-0.901489,1.6768,-16.3720,16.7378
-0.062012,0.160522,-0.901428,1.7378,-16.1585,16.5854
-0.062805,0.159729,-0.901611,1.8293,-15.9451,16.4329
-0.063538,0.158936,-0.902039,1.9207,-15.7317,16.2805
-0.064270,0.158020,-0.902649,2.0122,-15.5183,16.1280
-0.064941,0.157166,-0.903381,2.1341,-15.3049,15.9756
-0.065552,0.156372,-0.904297,2.2561,-15.1220,15.7927
-0.066223,0.155518,-0.905334,2.3780,-14.9390,15.6707
-0.066956,0.154785,-0.906433,2.5000,-14.7866,15.5183
-0.067688,0.154175,-0.907532,2.6220,-14.6646,15.3963
-0.068481,0.153625,-0.908569,2.6829,-14.5427,15.2439
-0.069397,0.153259,-0.909729,2.7744,-14.4817,15.1220
-0.070435,0.153015,-0.910767,2.8049,-14.4207,15.0000
-0.071594,0.152832,-0.911804,2.8354,-14.4207,14.8780
-0.072876,0.152832,-0.912781,2.8659,-14.4207,14.7561
-0.074158,0.152893,-0.913696,2.8354,-14.4817,14.6341
-0.075500,0.153076,-0.914368,2.8049,-14.5427,14.4817
-0.076782,0.153320,-0.914795,2.7134,-14.6646,14.3293
-0.078125,0.153625,-0.915039,2.6220,-14.7866,14.2073
-0.079407,0.153870,-0.914917,2.5000,-14.9390,14.0244
-0.080505,0.154175,-0.914551,2.3476,-15.1220,13.8720
-0.081543,0.154419,-0.913879,2.1646,-15.3354,13.6890
-0.082458,0.154541,-0.912842,1.9512,-15.5488,13.5061
-0.083252,0.154663,-0.911621,1.7073,-15.7927,13.3232
-0.083862,0.154663,-0.910217,1.4329,-16.0366,13.1402
-0.084473,0.154663,-0.908569,1.1585,-16.2500,12.9878
-0.084839,0.154602,-0.906921,0.8537,-16.4329,12.8049
-0.085144,0.154541,-0.905273,0.5183,-16.6159,12.6524
-0.085449,0.154541,-0.903564,0.1829,-16.7683,12.4695
-0.085693,0.154541,-0.901978,-0.1220,-16.8598,12.3476
-0.085938,0.154663,-0.900452,-0.4573,-16.9207,12.1646
-0.086243,0.154785,-0.899109,-0.7317,-16.9207,12.0122
-0.086670,0.155029,-0.897949,-1.0061,-16.8598,11.8598
-0.087158,0.155457,-0.897095,-1.2500,-16.7683,11.6768
-0.087769,0.155884,-0.896423,-1.4634,-16.6463,11.4939
-0.088501,0.156494,-0.896057,-1.6463,-16.4634,11.3110
-0.089355,0.157166,-0.895874,-1.7683,-16.2805,11.0976
-0.090271,0.157959,-0.895935,-1.8902,-16.0366,10.8537
-0.091309,0.158691,-0.896423,-1.9512,-15.7622,10.5793
-0.092346,0.159485,-0.897095,-1.9817,-15.5183,10.3354
-0.093384,0.160217,-0.898071,-2.0122,-15.2439,10.0305
-0.094360,0.160889,-0.899292,-2.0427,-14.9695,9.7561
-0.095398,0.161499,-0.901001,-2.0427,-14.6951,9.4817
-0.096252,0.161865,-0.902893,-2.0122,-14.4207,9.1768
-0.097168,0.162109,-0.905151,-1.9817,-14.1768,8.8720
-0.098145,0.162048,-0.907837,-1.9512,-13.9329,8.5976
-0.099121,0.161865,-0.910583,-1.8902,-13.7195,8.2927
-0.100159,0.161438,-0.913391,-1.7988,-13.5366,7.9878
-0.101318,0.160706,-0.916260,-1.7073,-13.3537,7.7134
-0.102539,0.159546,-0.919312,-1.6159,-13.2012,7.4390
-0.103760,0.158081,-0.922119,-1.5244,-13.0488,7.1646
-0.104919,0.156433,-0.924805,-1.4329,-12.9268,6.9207
-0.106140,0.154602,-0.927551,-1.3415,-12.8354,6.6768
-0.107300,0.152832,-0.929932,-1.2500,-12.7744,6.4329
-0.108459,0.151123,-0.932190,-1.1890,-12.7134,6.1890
-0.109619,0.149536,-0.934204,-1.1280,-12.7134,5.9756
-0.110901,0.148132,-0.936096,-1.0976,-12.7134,5.7927
-0.112000,0.147095,-0.937622,-1.0976,-12.7439,5.5793
-0.113098,0.146301,-0.938904,-1.1280,-12.8049,5.3963
-0.114197,0.145752,-0.939941,-1.1890,-12.8963,5.2134
-0.115173,0.145386,-0.940674,-1.3110,-12.9878,5.0305
-0.115967,0.145081,-0.941345,-1.4634,-13.1402,4.8476
-0.116577,0.144653,-0.941833,-1.6463,-13.2622,4.6951
-0.117065,0.144348,-0.942383,-1.8902,-13.4146,4.5732
-0.117432,0.144104,-0.942810,-2.1951,-13.5671,4.4512
-0.117859,0.143921,-0.943237,-2.5000,-13.7195,4.3293
-0.118469,0.143860,-0.943542,-2.8354,-13.8720,4.2073
-0.119080,0.143860,-0.943787,-3.2012,-14.0244,4.1159
-0.119751,0.143982,-0.943970,-3.5976,-14.1768,4.0244
-0.120605,0.144287,-0.944092,-3.9634,-14.2988,3.9024
-0.121399,0.144775,-0.944092,-4.3598,-14.4207,3.8110
-0.122253,0.145203,-0.944031,-4.7561,-14.5427,3.6585
-0.123047,0.145691,-0.943787,-5.1524,-14.6341,3.5061
-0.123657,0.146057,-0.943604,-5.5183,-14.7256,3.3841
-0.124146,0.146362,-0.943359,-5.8841,-14.8171,3.2317
-0.124512,0.146606,-0.943115,-6.2805,-14.8780,3.0488
-0.124817,0.146790,-0.942932,-6.6159,-14.9085,2.8659
-0.125122,0.146973,-0.942749,-6.9512,-14.9085,2.7134
-0.125488,0.147156,-0.942566,-7.2561,-14.9085,2.5305
-0.125916,0.147400,-0.942383,-7.5305,-14.8780,2.3780
-0.126465,0.147888,-0.942139,-7.7744,-14.8476,2.1951
-0.127136,0.148621,-0.941895,-7.9878,-14.7866,2.0122
-0.127869,0.149536,-0.941711,-8.1707,-14.6646,1.7988
-0.128723,0.150757,-0.941589,-8.2927,-14.5732,1.5854
-0.129639,0.152039,-0.941528,-8.4146,-14.4207,1.3720
-0.130554,0.153442,-0.941650,-8.5061,-14.2683,1.1280
-0.131531,0.154846,-0.941833,-8.5671,-14.0854,0.8841
-0.132629,0.156250,-0.942261,-8.5976,-13.9024,0.6098
-0.133545,0.157593,-0.942993,-8.6280,-13.6890,0.3659
-0.134583,0.158813,-0.943909,-8.6280,-13.4451,0.0610
-0.135742,0.159912,-0.945068,-8.6280,-13.2012,-0.2134
-0.136841,0.160767,-0.946350,-8.5976,-12.9573,-0.4573
-0.138000,0.161499,-0.947815,-8.5671,-12.7134,-0.7622
-0.139221,0.162354,-0.949280,-8.5061,-12.4695,-1.0061
-0.140503,0.163269,-0.950989,-8.4756,-12.2561,-1.2805
-0.141724,0.164246,-0.952759,-8.4146,-12.0122,-1.5549
-0.142883,0.165283,-0.954651,-8.3537,-11.7988,-1.8293
-0.144043,0.166504,-0.956726,-8.2622,-11.6159,-2.1037
-0.145020,0.167847,-0.958740,-8.2012,-11.4634,-2.3780
-0.145996,0.169250,-0.960815,-8.1402,-11.3110,-2.6524
-0.147034,0.170898,-0.963074,-8.0488,-11.1890,-2.8963
-0.148071,0.172607,-0.965271,-7.9878,-11.0671,-3.1707
-0.149048,0.174316,-0.967407,-7.9268,-10.9756,-3.4451
-0.150146,0.176086,-0.969543,-7.8659,-10.8841,-3.7195
-0.151367,0.178101,-0.971802,-7.8354,-10.8232,-3.9939
-0.152649,0.180115,-0.973877,-7.8049,-10.7622,-4.2683
-0.153992,0.182373,-0.976074,-7.8049,-10.7012,-4.5427
-0.155457,0.184937,-0.978394,-7.7744,-10.6707,-4.8476
-0.156982,0.187500,-0.980591,-7.7744,-10.6098,-5.1220
-0.158508,0.190308,-0.982788,-7.8049,-10.6098,-5.4573
-0.160156,0.193176,-0.984924,-7.8049,-10.5793,-5.7927
-0.161865,0.196411,-0.987244,-7.8354,-10.5793,-6.1585
-0.163513,0.199585,-0.989380,-7.8659,-10.6098,-6.5549
-0.165100,0.202820,-0.991455,-7.9268,-10.6402,-6.9817
-0.166748,0.206177,-0.993591,-7.9878,-10.6707,-7.4085
-0.168152,0.209290,-0.995605,-8.0793,-10.7317,-7.8659
-0.169434,0.212280,-0.997620,-8.1707,-10.7927,-8.3841
-0.170654,0.215027,-0.999634,-8.2927,-10.8537,-8.9024
-0.171692,0.217529,-1.001770,-8.4146,-10.9451,-9.4207
-0.172546,0.219543,-1.003845,-8.5671,-11.0366,-9.9390
-0.173279,0.221252,-1.005798,-8.6890,-11.0976,-10.4878
-0.174011,0.222717,-1.007874,-8.8415,-11.1890,-11.0366
-0.174622,0.223755,-1.009888,-8.9939,-11.2500,-11.5549
-0.175232,0.224548,-1.011902,-9.1463,-11.3110,-12.1341
-0.175781,0.225159,-1.013916,-9.2683,-11.3415,-12.6524
-0.176270,0.225647,-1.015991,-9.4207,-11.3720,-13.1707
-0.176697,0.225952,-1.018005,-9.5732,-11.4024,-13.6890
-0.177124,0.226135,-1.020020,-9.7256,-11.4024,-14.2378
-0.177490,0.226196,-1.022095,-9.8780,-11.4024,-14.7256
-0.177795,0.226013,-1.024048,-10.0305,-11.4329,-15.2134
-0.178040,0.225647,-1.025879,-10.2134,-11.4329,-15.7012
-0.178345,0.225037,-1.027771,-10.3659,-11.4634,-16.1280
-0.178711,0.224243,-1.029724,-10.5183,-11.4939,-16.5549
-0.179077,0.223267,-1.031433,-10.7012,-11.5244,-17.0122
-0.179504,0.222046,-1.033142,-10.8841,-11.5854,-17.3780
-0.179993,0.220520,-1.034729,-11.0366,-11.6463,-17.7744
-0.180542,0.218811,-1.036194,-11.2195,-11.7073,-18.1098
-0.181152,0.216919,-1.037598,-11.4024,-11.7988,-18.4756
-0.181641,0.214661,-1.039001,-11.6159,-11.8902,-18.8110
-0.182007,0.212402,-1.040222,-11.7988,-12.0122,-19.1159
-0.182190,0.210022,-1.041321,-12.0122,-12.1646,-19.4207
-0.182068,0.207703,-1.042297,-12.1951,-12.2866,-19.6951
-0.181763,0.205322,-1.043274,-12.4085,-12.4390,-19.9390
-0.181091,0.203125,-1.044067,-12.5915,-12.6220,-20.1829
-0.180176,0.201172,-1.044739,-12.7439,-12.7744,-20.4268
-0.178955,0.199341,-1.045166,-12.8963,-12.9268,-20.6098
-0.177673,0.198059,-1.045410,-12.9878,-13.0793,-20.7927
-0.176270,0.197021,-1.045410,-13.0793,-13.1707,-20.9451
-0.174805,0.196350,-1.045227,-13.1402,-13.2317,-21.0976
-0.173279,0.196106,-1.044983,-13.2012,-13.2927,-21.1890
-0.171814,0.196350,-1.044556,-13.2317,-13.2622,-21.3110
-0.170410,0.197144,-1.044067,-13.2622,-13.2012,-21.4024
-0.168884,0.198425,-1.043701,-13.2622,-13.0488,-21.4939
-0.167480,0.200256,-1.043518,-13.2927,-12.8659,-21.5854
-0.166138,0.202454,-1.043518,-13.3232,-12.5610,-21.6768
-0.164612,0.205322,-1.044128,-13.3841,-12.2256,-21.7683
-0.163025,0.208557,-1.045227,-13.4146,-11.8293,-21.8598
-0.161560,0.212097,-1.046936,-13.4756,-11.3415,-21.9207
-0.160156,0.216064,-1.049255,-13.5366,-10.8232,-22.0122
-0.158752,0.220764,-1.052795,-13.5671,-10.2439,-22.1037
-0.157593,0.225769,-1.057129,-13.5671,-9.6341,-22.1646
-0.156677,0.231262,-1.062378,-13.5671,-8.9329,-22.2561
-0.155884,0.237610,-1.069153,-13.5366,-8.2317,-22.3476
-0.155457,0.244202,-1.076721,-13.4451,-7.5000,-22.4695
-0.155334,0.251160,-1.085205,-13.2927,-6.7073,-22.5915
-0.155518,0.258423,-1.094666,-13.1098,-5.9451,-22.7744
-0.156006,0.266479,-1.105652,-12.8659,-5.1829,-22.9573
-0.156799,0.274292,-1.117065,-12.5915,-4.3902,-23.1707
-0.157837,0.282227,-1.129150,-12.2561,-3.5976,-23.4451
-0.159119,0.290466,-1.142639,-11.8598,-2.8659,-23.7500
-0.160583,0.298157,-1.156006,-11.4329,-2.1951,-24.1159
-0.162170,0.305603,-1.169678,-10.9146,-1.5244,-24.5122
-0.163818,0.312744,-1.183594,-10.4268,-0.9756,-24.9390
-0.165466,0.319824,-1.198303,-9.9085,-0.4878,-25.3963
-0.167053,0.325989,-1.212219,-9.3902,-0.1220,-25.8841
-0.168457,0.331665,-1.226013,-8.8415,0.1524,-26.4329
-0.169800,0.336914,-1.240173,-8.3232,0.3049,-26.9512
-0.170898,0.341309,-1.252991,-7.8354,0.3354,-27.5000
-0.171753,0.345154,-1.265198,-7.3171,0.2134,-28.0793
-0.172485,0.348633,-1.276672,-6.9207,-0.0305,-28.6280
-0.173096,0.351624,-1.287659,-6.5244,-0.3963,-29.2073
-0.173523,0.353821,-1.296875,-6.1585,-0.9146,-29.7866
-0.173767,0.355652,-1.304993,-5.8537,-1.5549,-30.3659
-0.173828,0.357056,-1.311951,-5.6402,-2.2561,-30.9146
-0.173645,0.357910,-1.317078,-5.4573,-3.0793,-31.4634
-0.173279,0.358459,-1.320984,-5.3354,-4.0244,-32.0427
-0.172668,0.358521,-1.323364,-5.2744,-5.0305,-32.5915
-0.171875,0.358154,-1.324341,-5.3049,-6.0976,-33.1098
-0.170776,0.357361,-1.323608,-5.3659,-7.2866,-33.6890
-0.169434,0.356323,-1.321594,-5.4878,-8.4451,-34.2073
-0.167725,0.354614,-1.317871,-5.6707,-9.6341,-34.7561
-0.165771,0.352600,-1.312866,-5.8537,-10.8537,-35.2744
-0.163513,0.350159,-1.306580,-6.0976,-12.1341,-35.8537
-0.160828,0.347107,-1.298584,-6.3415,-13.3537,-36.3720
-0.157898,0.343750,-1.289734,-6.6159,-14.5732,-36.9207
-0.154785,0.340149,-1.279907,-6.8902,-15.8232,-37.4695
-0.151489,0.336182,-1.269287,-7.1341,-16.9817,-37.9878
-0.147766,0.331726,-1.257019,-7.3476,-18.0793,-38.5366
-0.144043,0.327209,-1.244629,-7.5305,-19.1463,-39.0854
-0.140259,0.322510,-1.231567,-7.6829,-20.2134,-39.6646
-0.136292,0.317261,-1.217346,-7.7744,-21.1585,-40.2134
-0.132446,0.312012,-1.203552,-7.8354,-22.0732,-40.7927
-0.128479,0.306641,-1.189575,-7.8659,-22.9268,-41.4329
-0.124451,0.301025,-1.175354,-7.8049,-23.6585,-42.0122
-0.120178,0.295044,-1.160278,-7.7134,-24.3598,-42.6220
-0.116272,0.289307,-1.145874,-7.5915,-25.0000,-43.2622
-0.112366,0.283569,-1.131470,-7.4085,-25.5793,-43.9024
-0.108459,0.277710,-1.116333,-7.1646,-26.0976,-44.5427
-0.104858,0.272278,-1.101929,-6.8902,-26.5549,-45.1829
-0.101440,0.266968,-1.087524,-6.5549,-27.0122,-45.8841
-0.098145,0.261780,-1.073120,-6.1890,-27.3780,-46.5549
-0.094788,0.256287,-1.058167,-5.7622,-27.7439,-47.2256
-0.091614,0.250977,-1.044128,-5.3049,-28.0793,-47.9573
-0.088501,0.245422,-1.030273,-4.7561,-28.4146,-48.6890
-0.085083,0.239136,-1.015869,-4.2073,-28.6890,-49.3902
-0.081787,0.232788,-1.002319,-3.6280,-28.9634,-50.0915
-0.078369,0.226013,-0.988892,-2.9878,-29.2378,-50.8232
-0.074585,0.218506,-0.974976,-2.3171,-29.4817,-51.4634
-0.070801,0.210693,-0.961182,-1.6159,-29.6951,-52.1037
-0.067078,0.203003,-0.948425,-0.8537,-29.8780,-52.7134
-0.063293,0.195129,-0.935791,-0.1220,-30.0305,-53.2927
-0.059204,0.186829,-0.922974,0.6402,-30.1829,-53.7805
-0.055115,0.179077,-0.911194,1.4024,-30.2439,-54.2683
-0.050964,0.171448,-0.899841,2.2256,-30.3049,-54.7256
-0.046509,0.163818,-0.888489,3.0183,-30.2744,-55.0915
-0.042053,0.156921,-0.878235,3.8415,-30.1829,-55.3963
-0.037598,0.150513,-0.868469,4.7561,-30.0000,-55.6707
-0.033020,0.144531,-0.859314,5.6402,-29.7561,-55.8841
-0.028137,0.139038,-0.850342,6.5244,-29.4512,-56.0671
-0.023499,0.134521,-0.842651,7.4695,-29.0549,-56.1890
-0.018860,0.130554,-0.835632,8.5366,-28.5366,-56.2500
-0.013855,0.127075,-0.829224,9.5427,-27.9573,-56.2805
-0.009094,0.124512,-0.824219,10.6098,-27.2866,-56.3110
-0.004456,0.122375,-0.820129,11.7683,-26.4634,-56.2500
0.000183,0.120544,-0.816956,12.9268,-25.6098,-56.1890
0.005005,0.119141,-0.814758,14.0549,-24.6646,-56.0671
0.009338,0.118164,-0.813843,15.2134,-23.6585,-55.9451
0.013489,0.117554,-0.813904,16.4634,-22.5305,-55.7317
0.017456,0.117432,-0.815186,17.6524,-21.3720,-55.5183
0.020874,0.117798,-0.817566,18.8415,-20.1829,-55.2439
0.024048,0.118591,-0.820801,20.1220,-18.8720,-54.9390
0.026917,0.119934,-0.824951,21.3415,-17.6220,-54.5732
0.029663,0.122070,-0.830322,22.5915,-16.3415,-54.2073
0.031982,0.124756,-0.836426,23.9024,-15.0305,-53.7805
0.034119,0.127991,-0.843323,25.2439,-13.7195,-53.3232
0.036133,0.132141,-0.851501,26.5244,-12.4695,-52.8963
0.037964,0.136841,-0.860107,27.8049,-11.2805,-52.4390
0.039551,0.142090,-0.869385,29.1768,-10.0305,-51.9207
0.040955,0.148376,-0.880005,30.4878,-8.9024,-51.4329
0.042175,0.155212,-0.891235,31.7988,-7.8049,-50.9146
0.042908,0.162476,-0.902771,33.1707,-6.6768,-50.3659
0.043335,0.170288,-0.914856,34.4817,-5.6707,-49.8476
0.043335,0.179260,-0.928284,35.8232,-4.6646,-49.2988
0.042847,0.188416,-0.941650,37.1341,-3.6890,-48.7500
0.041992,0.197998,-0.955444,38.5366,-2.6829,-48.2012
0.040649,0.208496,-0.970459,39.8780,-1.7683,-47.6829
0.038940,0.218750,-0.985168,41.2500,-0.8841,-47.1646
0.036987,0.229065,-1.000122,42.6524,0.0000,-46.6768
0.034851,0.239380,-1.015381,43.9939,0.8232,-46.2195
0.032410,0.250061,-1.031616,45.3354,1.5854,-45.7622
0.029846,0.259888,-1.047241,46.6463,2.2866,-45.3354
0.027161,0.269409,-1.062866,47.9878,2.9878,-44.9085
0.024231,0.278992,-1.079224,49.2073,3.5366,-44.5122
0.021423,0.287598,-1.094666,50.3963,4.0549,-44.1159
0.018555,0.295776,-1.109863,51.5549,4.4817,-43.6890
0.015625,0.303650,-1.124634,52.5610,4.7561,-43.2927
0.012634,0.311462,-1.139648,53.4756,4.9695,-42.8963
0.009766,0.318481,-1.153259,54.2988,5.0610,-42.5000
0.007019,0.325195,-1.166260,55.0305,5.0610,-42.0732
0.004211,0.331909,-1.179077,55.5793,4.9085,-41.6463
0.001587,0.337952,-1.190247,56.0366,4.6341,-41.2500
-0.000854,0.343750,-1.200562,56.3110,4.2378,-40.7927
-0.003296,0.349548,-1.210388,56.4329,3.7500,-40.3659
-0.005676,0.355042,-1.219299,56.4329,3.1402,-39.9695
-0.007812,0.359863,-1.226562,56.2500,2.3780,-39.5122
-0.009888,0.364502,-1.232910,55.9146,1.5549,-39.0549
-0.011963,0.368896,-1.238403,55.4268,0.6402,-38.6280
-0.013855,0.372620,-1.242371,54.8171,-0.3049,-38.2012
-0.015625,0.375977,-1.245483,53.9634,-1.4024,-37.7439
-0.017334,0.378967,-1.247437,53.0183,-2.5305,-37.3171
-0.018860,0.381226,-1.248352,51.9207,-3.6585,-36.8902
-0.020325,0.383118,-1.248413,50.6098,-4.9390,-36.4024
-0.021729,0.384521,-1.247681,49.2378,-6.1585,-35.9756
-0.023010,0.385498,-1.245850,47.7439,-7.4085,-35.5488
-0.024109,0.385925,-1.243286,46.1585,-8.6585,-35.0915
-0.025146,0.385864,-1.240051,44.3902,-10.0305,-34.6341
-0.026062,0.385315,-1.235779,42.5915,-11.3110,-34.1768
-0.026855,0.384338,-1.230957,40.7622,-12.6220,-33.7500
-0.027588,0.382996,-1.225403,38.7805,-14.0244,-33.2622
-0.028137,0.381348,-1.219116,36.8902,-15.3659,-32.8354
-0.028625,0.379272,-1.211548,34.9695,-16.7378,-32.4085
-0.028931,0.376953,-1.203552,33.0488,-18.0793,-32.0122
-0.029175,0.374451,-1.194885,31.0671,-19.5427,-31.5854
-0.029297,0.371643,-1.184753,29.2378,-20.8841,-31.2195
-0.029358,0.368835,-1.174316,27.4390,-22.2256,-30.8537
-0.029358,0.365967,-1.163208,25.6402,-23.6280,-30.4878
-0.029297,0.362976,-1.151428,23.9939,-24.9085,-30.1829
-0.029053,0.359741,-1.138306,22.4085,-26.1585,-29.8780
-0.028687,0.356750,-1.125183,20.8537,-27.4085,-29.6037
-0.028137,0.353699,-1.111572,19.3598,-28.5976,-29.3598
-0.027405,0.350342,-1.096741,18.0183,-29.6646,-29.1463
-0.026367,0.347046,-1.082214,16.7683,-30.6707,-28.9634
-0.025208,0.343750,-1.067444,15.5488,-31.6159,-28.7805
-0.023621,0.340027,-1.051697,14.4512,-32.4390,-28.6585
-0.021851,0.336182,-1.035889,13.4146,-33.1402,-28.5671
-0.020081,0.332336,-1.020813,12.3780,-33.8110,-28.4756
-0.018127,0.328186,-1.005798,11.4939,-34.2988,-28.4146
-0.015930,0.323486,-0.990173,10.6402,-34.7256,-28.3537
-0.013733,0.318665,-0.975708,9.8171,-35.0915,-28.3232
-0.011475,0.313599,-0.961487,9.0244,-35.3354,-28.2622
-0.009155,0.307861,-0.947144,8.3537,-35.4878,-28.2317
-0.006958,0.302002,-0.934021,7.6829,-35.5793,-28.2012
-0.004822,0.296021,-0.921387,7.0427,-35.5488,-28.1402
-0.002747,0.289795,-0.909302,6.4939,-35.4573,-28.1098
-0.000732,0.283081,-0.897278,5.9756,-35.3354,-28.0488
0.000977,0.276550,-0.886475,5.4878,-35.1524,-27.9878
0.002625,0.269958,-0.876221,5.0305,-34.8780,-27.9268
0.004150,0.263062,-0.866028,4.6341,-34.6037,-27.8354
0.005493,0.256592,-0.856995,4.2988,-34.2683,-27.7439
0.006714,0.250244,-0.848511,3.9939,-33.9024,-27.6220
0.007751,0.243958,-0.840454,3.7805,-33.5671,-27.5305
0.008789,0.237549,-0.832458,3.5671,-33.2012,-27.3780
0.009644,0.231750,-0.825378,3.4146,-32.8354,-27.2561
0.010376,0.226135,-0.818604,3.2927,-32.4695,-27.1037
0.011047,0.220520,-0.811890,3.2012,-32.1037,-26.9512
0.011536,0.215454,-0.805847,3.1402,-31.7683,-26.7988
0.012085,0.210693,-0.799927,3.0793,-31.4024,-26.6159
0.012512,0.206116,-0.794250,3.0183,-31.0671,-26.4329
0.013000,0.201660,-0.788330,2.9573,-30.7317,-26.2500
0.013428,0.197754,-0.782959,2.8659,-30.3963,-26.0366
0.013855,0.194092,-0.777771,2.7744,-30.0305,-25.7927
0.014160,0.190613,-0.772522,2.6524,-29.7256,-25.5488
0.014404,0.187683,-0.767822,2.5305,-29.3902,-25.3049
0.014587,0.184998,-0.763306,2.3476,-29.0244,-25.0305
0.014587,0.182434,-0.758789,2.1646,-28.6585,-24.7561
0.014404,0.180115,-0.754578,1.9512,-28.2927,-24.4512
0.014160,0.178101,-0.750916,1.7073,-27.8963,-24.1463
0.013794,0.176270,-0.747559,1.4634,-27.5000,-23.8415
0.013184,0.174377,-0.744263,1.1890,-27.1037,-23.5061
0.012512,0.172729,-0.741394,0.9451,-26.6768,-23.2012
0.011719,0.171204,-0.738708,0.6402,-26.2195,-22.8659
0.010803,0.169678,-0.736084,0.3963,-25.7622,-22.5610
0.009827,0.168396,-0.733948,0.1524,-25.2744,-22.2561
0.008789,0.167236,-0.731873,-0.0610,-24.7866,-21.9512
0.007751,0.166138,-0.730042,-0.2744,-24.2683,-21.6768
0.006653,0.164978,-0.728271,-0.4268,-23.7805,-21.4024
0.005676,0.163940,-0.726746,-0.5488,-23.2622,-21.1280
0.004700,0.162964,-0.725342,-0.6707,-22.6829,-20.8537
0.003662,0.162048,-0.724121,-0.7317,-22.1037,-20.5793
0.002747,0.161316,-0.723083,-0.7317,-21.5244,-20.3354
0.001770,0.160645,-0.722229,-0.7317,-20.8841,-20.0610
0.000732,0.159973,-0.721497,-0.6707,-20.2439,-19.7866
-0.000549,0.159424,-0.720764,-0.6098,-19.5427,-19.5427
-0.001831,0.159058,-0.720398,-0.5183,-18.8415,-19.2683
-0.003235,0.158813,-0.720154,-0.3659,-18.0488,-19.0244
-0.004883,0.158508,-0.720215,-0.2134,-17.2561,-18.7805
-0.006592,0.158203,-0.720581,-0.0305,-16.4634,-18.5366
-0.008423,0.157959,-0.721313,0.1524,-15.5793,-18.2927
-0.010193,0.157715,-0.722290,0.3963,-14.6951,-18.0488
-0.012207,0.157532,-0.723755,0.6098,-13.8110,-17.7744
-0.014099,0.157410,-0.725647,0.8841,-12.8963,-17.5000
-0.016052,0.157410,-0.727783,1.1585,-11.9817,-17.2256
-0.018188,0.157532,-0.730469,1.4329,-11.1280,-16.9817
-0.020203,0.157654,-0.733398,1.7073,-10.2744,-16.7073
-0.022278,0.157837,-0.736511,2.0427,-9.4207,-16.4329
-0.024536,0.157898,-0.739990,2.3476,-8.6280,-16.1585
-0.026917,0.157959,-0.743591,2.6524,-7.8659,-15.9146
-0.029175,0.157898,-0.747131,2.9878,-7.0732,-15.6402
-0.031555,0.157837,-0.750793,3.3232,-6.3415,-15.3963
-0.034058,0.157715,-0.754822,3.6585,-5.6402,-15.1524
-0.036438,0.157593,-0.758667,3.9634,-4.9390,-14.9085
-0.038879,0.157532,-0.762512,4.2988,-4.2378,-14.6341
-0.041504,0.157654,-0.766663,4.5732,-3.5976,-14.3902
-0.044006,0.157959,-0.770630,4.8476,-2.9573,-14.1463
-0.046509,0.158508,-0.774719,5.0915,-2.3171,-13.8720
-0.049011,0.159180,-0.778992,5.3049,-1.7378,-13.6280
-0.051697,0.160095,-0.783569,5.5183,-1.1585,-13.3537
-0.054260,0.161194,-0.788025,5.7012,-0.6098,-13.1098
-0.056946,0.162415,-0.792603,5.8841,-0.0610,-12.8659
-0.059814,0.163818,-0.797485,6.0366,0.4573,-12.6220
-0.062622,0.165161,-0.802307,6.1890,0.9451,-12.3780
-0.065491,0.166504,-0.807190,6.3110,1.4024,-12.1341
-0.068420,0.167725,-0.812134,6.4329,1.8293,-11.9207
-0.071594,0.169006,-0.817505,6.5244,2.2256,-11.6768
-0.074646,0.170105,-0.822693,6.6159,2.6220,-11.4634
-0.077637,0.171082,-0.827942,6.7073,2.9573,-11.2500
-0.080750,0.171997,-0.833435,6.7988,3.2622,-11.0366
-0.083557,0.172791,-0.838684,6.8598,3.5061,-10.8232
-0.086426,0.173462,-0.843872,6.9207,3.7500,-10.6098
-0.089172,0.174133,-0.848938,6.9817,3.9024,-10.4268
-0.092163,0.174683,-0.854065,7.0122,4.0549,-10.2134
-0.094849,0.175171,-0.858582,7.0427,4.1463,-10.0305
-0.097534,0.175598,-0.862976,7.0732,4.2073,-9.8171
-0.100220,0.175903,-0.867249,7.0732,4.2073,-9.6341
-0.102661,0.176270,-0.871033,7.0427,4.2073,-9.4207
-0.105103,0.176636,-0.874573,7.0122,4.1768,-9.2378
-0.107300,0.176880,-0.877869,6.9512,4.0854,-9.0244
-0.109375,0.177185,-0.880859,6.8598,3.9939,-8.8415
-0.111084,0.177490,-0.883362,6.7378,3.9024,-8.6280
-0.112549,0.177673,-0.885498,6.6159,3.7805,-8.4146
-0.113953,0.177856,-0.887451,6.4634,3.6585,-8.2012
-0.115112,0.178040,-0.888794,6.2805,3.5366,-7.9878
-0.116272,0.178101,-0.889954,6.0976,3.3841,-7.7439
-0.117371,0.178101,-0.890869,5.8841,3.2927,-7.5305
-0.118408,0.178040,-0.891541,5.6707,3.1707,-7.2866
-0.119385,0.177979,-0.892212,5.4268,3.0793,-7.0427
-0.120300,0.177856,-0.892822,5.1524,2.9878,-6.8293
-0.121216,0.177734,-0.893555,4.9085,2.9268,-6.5854
-0.122070,0.177612,-0.894226,4.6646,2.8659,-6.3415
-0.122864,0.177490,-0.895081,4.4207,2.8354,-6.0976
-0.123535,0.177368,-0.896240,4.2073,2.8049,-5.8537
-0.124207,0.177246,-0.897522,3.9939,2.8049,-5.6098
-0.124817,0.177185,-0.898987,3.7805,2.8049,-5.3354
-0.125366,0.177124,-0.900574,3.6280,2.8049,-5.0915
-0.126038,0.176941,-0.902344,3.5061,2.8354,-4.8476
-0.126770,0.176819,-0.904175,3.3841,2.8659,-4.6037
-0.127563,0.176575,-0.906067,3.2927,2.9268,-4.3293
-0.128418,0.176331,-0.907959,3.2317,2.9573,-4.0854
-0.129333,0.176270,-0.909790,3.1707,2.9878,-3.8415
-0.130188,0.176453,-0.911560,3.1402,3.0488,-3.5976
-0.130981,0.176697,-0.913391,3.1098,3.1098,-3.3841
-0.131653,0.176941,-0.915283,3.0793,3.1707,-3.2012
-0.132080,0.177185,-0.917175,3.0488,3.2012,-2.9878
-0.132324,0.177429,-0.919128,3.0183,3.2622,-2.7744
-0.132507,0.177856,-0.921387,2.9878,3.3232,-2.5610
-0.132507,0.178406,-0.923828,2.9573,3.3537,-2.3171
-0.132507,0.178955,-0.926392,2.9268,3.4146,-2.0427
-0.132446,0.179626,-0.929260,2.9268,3.4451,-1.7378
-0.132507,0.180481,-0.932190,2.8963,3.4451,-1.4024
-0.132751,0.181641,-0.935181,2.8963,3.4756,-1.0366
-0.133118,0.183044,-0.938354,2.9268,3.5061,-0.6707
-0.133789,0.184814,-0.941833,2.9268,3.5366,-0.3354
-0.134644,0.186768,-0.945251,2.9878,3.5671,-0.0305
-0.135559,0.188843,-0.948853,3.0183,3.6280,0.2744
-0.136780,0.191162,-0.952942,3.1098,3.6890,0.4878
-0.138062,0.193481,-0.957031,3.2012,3.7805,0.7012
-0.139404,0.195679,-0.961304,3.3232,3.9024,0.8537
-0.140686,0.197937,-0.965759,3.4451,4.0549,1.0061
-0.142029,0.200378,-0.970642,3.5976,4.2073,1.0976
-0.143127,0.202759,-0.975342,3.7500,4.3598,1.1890
-0.144043,0.205078,-0.980042,3.8720,4.5427,1.2805
-0.144836,0.207520,-0.985046,3.9939,4.6951,1.3415
-0.145447,0.209778,-0.989685,4.1159,4.8171,1.4024
-0.145813,0.211975,-0.994324,4.2073,4.9085,1.4634
-0.146118,0.214172,-0.998901,4.2683,4.9390,1.5244
-0.146301,0.216431,-1.003662,4.2988,4.9695,1.5854
-0.146362,0.218567,-1.008118,4.3293,4.9390,1.6463
-0.146484,0.220703,-1.012573,4.3293,4.8476,1.7073
-0.146545,0.222839,-1.017151,4.3293,4.7561,1.7683
-0.146729,0.224731,-1.021362,4.3293,4.6037,1.8293
-0.146851,0.226440,-1.025391,4.3293,4.4207,1.8598
-0.147034,0.227966,-1.029480,4.3293,4.2378,1.9207
-0.147156,0.229309,-1.033386,4.3293,4.0549,1.9512
-0.147156,0.230286,-1.036804,4.3293,3.8415,1.9817
-0.147156,0.230896,-1.040039,4.3293,3.5976,2.0122
-0.147034,0.231262,-1.043274,4.3293,3.3841,2.0427
-0.146851,0.231323,-1.046021,4.3293,3.1707,2.0427
-0.146545,0.231201,-1.048706,4.3293,2.9268,2.0427
-0.146057,0.230774,-1.051392,4.3293,2.7134,2.0427
-0.145447,0.230042,-1.053772,4.2988,2.5000,2.0427
-0.144836,0.229065,-1.056030,4.2378,2.2561,2.0427
-0.144226,0.227844,-1.058228,4.1768,2.0732,2.0732
-0.143616,0.226318,-1.060425,4.0854,1.8598,2.0732
-0.143127,0.224609,-1.062317,3.9939,1.6463,2.1037
-0.142700,0.222778,-1.064148,3.8720,1.4024,2.1646
-0.142334,0.220520,-1.065918,3.7195,1.1890,2.2256
-0.142090,0.218201,-1.067383,3.5366,0.9451,2.2561
-0.141907,0.215698,-1.068726,3.3537,0.6707,2.3476
-0.141724,0.213013,-1.070068,3.1707,0.3659,2.4085
-0.141418,0.209778,-1.071106,2.9878,0.0610,2.4695
-0.141052,0.206360,-1.071899,2.8354,-0.2744,2.5610
-0.140564,0.202698,-1.072510,2.6524,-0.6402,2.6524
-0.140015,0.198547,-1.072754,2.5000,-1.0366,2.7439
-0.139343,0.194336,-1.072571,2.3476,-1.4329,2.8659
-0.138489,0.189941,-1.072083,2.1951,-1.8902,3.0183
-0.137573,0.185608,-1.071167,2.0732,-2.3171,3.1707
-0.136414,0.181091,-1.069763,1.9512,-2.7744,3.3537
-0.135071,0.177063,-1.068115,1.7683,-3.2622,3.5671
-0.133484,0.173279,-1.066162,1.6159,-3.7195,3.7805
-0.131470,0.169617,-1.063782,1.4634,-4.1768,3.9939
-0.129211,0.166443,-1.061218,1.2805,-4.6037,4.2378
-0.126770,0.163513,-1.058411,1.0976,-5.0305,4.5122
-0.124023,0.160767,-1.055115,0.9146,-5.3963,4.7866
-0.121155,0.158203,-1.051636,0.7317,-5.7317,5.0915
-0.118164,0.156067,-1.048218,0.5183,-6.0366,5.4268
-0.115051,0.154114,-1.044678,0.3354,-6.2500,5.7927
-0.111572,0.152283,-1.041016,0.1220,-6.4329,6.1585
-0.108276,0.150879,-1.037720,-0.0915,-6.5244,6.5549
-0.104919,0.149719,-1.034668,-0.3049,-6.5854,7.0122
-0.101440,0.148987,-1.031982,-0.5488,-6.5549,7.4390
-0.098145,0.148804,-1.030029,-0.7927,-6.4939,7.8963
-0.094971,0.149170,-1.028625,-1.0366,-6.3415,8.3841
-0.092041,0.149963,-1.027893,-1.2805,-6.1585,8.8720
-0.089355,0.151428,-1.028015,-1.5244,-5.8841,9.3598
-0.087280,0.153381,-1.028931,-1.7683,-5.6098,9.8476
-0.085571,0.155701,-1.030579,-2.0122,-5.2439,10.3963
-0.084106,0.158508,-1.033264,-2.2256,-4.8780,10.8841
-0.083191,0.161438,-1.036621,-2.4390,-4.5122,11.3720
-0.082520,0.164429,-1.040588,-2.6220,-4.0854,11.8902
-0.082092,0.167419,-1.045105,-2.8049,-3.7195,12.3476
-0.081909,0.170471,-1.050476,-2.9573,-3.3537,12.8354
-0.082031,0.173096,-1.056091,-3.1402,-2.9878,13.2927
-0.082275,0.175537,-1.061951,-3.2927,-2.6829,13.8110
-0.082703,0.177734,-1.068359,-3.4451,-2.4390,14.2988
-0.083191,0.179504,-1.074585,-3.5976,-2.2561,14.7866
-0.083679,0.181030,-1.080811,-3.7805,-2.1037,15.3049
-0.084351,0.182373,-1.087158,-3.9634,-2.0427,15.8232
-0.085083,0.183838,-1.093811,-4.1768,-2.0427,16.3720
-0.085876,0.185242,-1.100037,-4.3598,-2.1037,16.9817
-0.086731,0.186768,-1.106140,-4.6037,-2.2561,17.5915
-0.087646,0.188843,-1.112305,-4.8171,-2.4390,18.2012
-0.088684,0.191223,-1.117920,-5.0305,-2.6524,18.7805
-0.089844,0.193970,-1.123230,-5.2744,-2.9878,19.4207
-0.091125,0.197388,-1.128418,-5.4878,-3.3232,20.0305
-0.092468,0.201294,-1.133179,-5.6707,-3.7195,20.6098
-0.093811,0.205383,-1.137085,-5.9146,-4.1768,21.1585
-0.095154,0.209778,-1.140564,-6.0976,-4.6646,21.6768
-0.096375,0.214722,-1.143433,-6.3110,-5.1524,22.1646
-0.097473,0.219666,-1.145508,-6.4939,-5.6707,22.6220
-0.098389,0.224731,-1.146912,-6.7378,-6.2500,23.0488
-0.099121,0.230103,-1.147644,-6.9512,-6.7988,23.4146
-0.099609,0.235168,-1.147522,-7.1951,-7.3476,23.7500
-0.099915,0.240173,-1.146851,-7.4390,-7.9573,24.0549
-0.099854,0.245056,-1.145508,-7.7134,-8.4756,24.3293
-0.099548,0.249939,-1.143372,-8.0183,-9.0244,24.5427
-0.098938,0.254272,-1.140686,-8.3232,-9.5427,24.7561
-0.098206,0.258301,-1.137573,-8.6585,-10.0305,24.9695
-0.097046,0.262268,-1.133789,-8.9939,-10.4878,25.1220
-0.095825,0.265808,-1.129822,-9.3293,-10.9146,25.2439
-0.094360,0.269165,-1.125610,-9.6951,-11.2805,25.3963
-0.092773,0.272461,-1.121277,-10.0305,-11.5854,25.4878
-0.091003,0.276062,-1.116455,-10.3354,-11.8293,25.5793
-0.089294,0.279785,-1.112183,-10.6402,-12.0122,25.6707
-0.087585,0.284119,-1.108215,-10.8232,-12.1341,25.7012
-0.085876,0.289368,-1.104187,-10.9146,-12.1037,25.6402
-0.084290,0.294617,-1.100342,-10.8232,-12.0122,25.5488
-0.082703,0.299866,-1.096619,-10.5488,-11.7683,25.3354
-0.081055,0.304932,-1.093262,-10.0915,-11.4329,25.0305
-0.079163,0.309875,-1.090210,-9.4512,-10.9756,24.7256
-0.077332,0.314331,-1.088074,-8.6280,-10.4268,24.3293
-0.075439,0.318420,-1.086121,-7.6524,-9.7866,23.9329
-0.073303,0.322205,-1.084656,-6.5854,-9.1159,23.5061
-0.071045,0.325195,-1.084167,-5.4878,-8.4451,23.1098
-0.068848,0.328186,-1.084595,-4.2988,-7.7744,22.7134
-0.066711,0.331421,-1.086121,-3.2012,-7.1646,22.3476
-0.064819,0.335022,-1.088379,-2.1037,-6.5854,21.9817
-0.063416,0.338623,-1.091370,-0.9146,-6.0671,21.5549
-0.062317,0.342224,-1.094849,0.1829,-5.6402,21.0976
-0.061707,0.345642,-1.098938,1.2805,-5.2744,20.5793
-0.061646,0.348267,-1.103088,2.4085,-4.9695,20.0305
-0.061890,0.350159,-1.107239,3.6280,-4.7256,19.3598
-0.062256,0.350952,-1.111267,4.7866,-4.5122,18.6585
-0.062683,0.350342,-1.114624,5.9451,-4.3902,17.8963
-0.062927,0.348572,-1.117310,7.1341,-4.2988,17.0732
-0.062866,0.345642,-1.119324,8.2317,-4.2988,16.2500
-0.062134,0.341187,-1.120483,9.2683,-4.3293,15.4268
-0.060791,0.335632,-1.120605,10.2439,-4.4512,14.6037
-0.058960,0.329407,-1.119873,11.1280,-4.6646,13.7805
-0.056335,0.322144,-1.118042,11.8293,-4.9390,13.0488
-0.053406,0.314697,-1.115356,12.4695,-5.3354,12.4085
-0.050110,0.307068,-1.111938,12.9573,-5.8537,11.8293
-0.046631,0.299316,-1.107727,13.3232,-6.4634,11.3415
-0.042908,0.291321,-1.102295,13.5671,-7.1341,10.9451
-0.039490,0.283875,-1.096191,13.6890,-7.8963,10.6402
-0.036255,0.276611,-1.089294,13.6890,-8.7805,10.3963
-0.033020,0.269226,-1.081299,13.5366,-9.6951,10.2439
-0.030273,0.262634,-1.073120,13.2927,-10.6402,10.1220
-0.027710,0.256287,-1.064148,12.9573,-11.6463,10.0305
-0.025208,0.249756,-1.053772,12.5610,-12.6220,9.9390
-0.022827,0.243164,-1.042847,12.1037,-13.5976,9.8780
-0.020569,0.236877,-1.031738,11.5854,-14.5732,9.8476
-0.018250,0.230530,-1.020142,11.0671,-15.4878,9.7866
-0.015442,0.223816,-1.007507,10.5793,-16.3110,9.7561
-0.012451,0.217468,-0.994995,10.0915,-17.1037,9.7561
-0.009155,0.211060,-0.981995,9.5732,-17.8354,9.7561
-0.005249,0.204468,-0.968323,9.0854,-18.4756,9.7866
-0.001282,0.198486,-0.955444,8.5671,-19.0549,9.8476
0.002808,0.192932,-0.942749,8.0488,-19.6037,9.9695
0.006958,0.187927,-0.930298,7.5305,-20.0305,10.0915
0.011047,0.183411,-0.917603,7.0427,-20.4268,10.2134
0.014648,0.179688,-0.906067,6.5549,-20.7317,10.3354
0.017944,0.176514,-0.894958,6.0671,-20.9451,10.4878
0.020996,0.173523,-0.883972,5.6707,-21.0671,10.6098
0.023315,0.171082,-0.874207,5.3354,-21.0976,10.7012
0.025330,0.168823,-0.865051,5.0305,-21.0061,10.7927
0.027100,0.166626,-0.856445,4.7866,-20.8537,10.8537
0.028687,0.164307,-0.848145,4.6037,-20.6098,10.8841
0.030090,0.161987,-0.841003,4.4512,-20.3049,10.9146
0.031433,0.159546,-0.834412,4.2988,-19.9390,10.9146
0.032898,0.156616,-0.828308,4.2073,-19.5122,10.9146
0.034302,0.153748,-0.823181,4.1159,-19.0549,10.9146
0.035706,0.150757,-0.818542,4.0244,-18.5671,10.9451
0.037170,0.147766,-0.814514,3.9634,-18.0793,10.9756
0.038635,0.144714,-0.810852,3.8720,-17.5915,11.0671
0.039917,0.141907,-0.808044,3.7805,-17.0732,11.1585
0.041077,0.139343,-0.805786,3.7195,-16.5854,11.3110
0.041931,0.137024,-0.804016,3.6280,-16.1280,11.4939
0.042480,0.135315,-0.802795,3.5671,-15.6402,11.7073
0.042725,0.134094,-0.802063,3.5061,-15.1829,11.9512
0.042542,0.133484,-0.801758,3.4146,-14.7256,12.2256
0.042053,0.133423,-0.801880,3.3537,-14.2683,12.5000
0.041199,0.134033,-0.802490,3.2622,-13.7805,12.7744
0.040100,0.135254,-0.803467,3.2012,-13.3232,13.0793
0.038574,0.137268,-0.804993,3.1402,-12.8659,13.3537
0.036865,0.139893,-0.806763,3.0793,-12.3780,13.6585
0.034973,0.142883,-0.808838,2.9878,-11.8902,13.9329
0.032776,0.146484,-0.811401,2.9268,-11.4024,14.1768
0.030518,0.150330,-0.814148,2.8659,-10.9451,14.3902
0.028076,0.154358,-0.817078,2.7744,-10.4573,14.6341
0.025513,0.158386,-0.820190,2.7134,-10.0305,14.8171
0.022583,0.162781,-0.823608,2.6220,-9.5732,15.0000
0.019714,0.166870,-0.827026,2.5305,-9.1768,15.1524
0.016724,0.170959,-0.830505,2.4085,-8.7500,15.2744
0.013367,0.175293,-0.834229,2.2866,-8.4146,15.3963
0.010071,0.179382,-0.837830,2.1646,-8.0488,15.4878
0.006714,0.183472,-0.841553,2.0427,-7.7134,15.5793
0.003235,0.187744,-0.845337,1.8902,-7.4390,15.6402
-0.000488,0.192261,-0.849426,1.7378,-7.1646,15.6707
-0.004211,0.196594,-0.853333,1.6159,-6.9207,15.6707
-0.007996,0.200989,-0.857361,1.4329,-6.6768,15.6707
-0.012146,0.205505,-0.861572,1.2805,-6.4634,15.6098
-0.016296,0.209717,-0.865723,1.1280,-6.2500,15.5488
-0.020569,0.213745,-0.869812,0.9756,-6.0671,15.4573
-0.024902,0.217590,-0.873840,0.8232,-5.8841,15.3354
-0.029724,0.221375,-0.878052,0.6402,-5.7317,15.2134
-0.034424,0.224548,-0.882019,0.4573,-5.5793,15.0305
-0.039185,0.227600,-0.885742,0.2744,-5.4573,14.8476
-0.044189,0.230469,-0.889526,0.0915,-5.3659,14.6646
-0.049011,0.233032,-0.892883,-0.1220,-5.2744,14.4817
-0.053711,0.235413,-0.896179,-0.3659,-5.1829,14.2378
-0.058533,0.237671,-0.899719,-0.6402,-5.1524,13.9939
-0.063354,0.239624,-0.903198,-0.9451,-5.1524,13.7195
-0.067749,0.241211,-0.906311,-1.3110,-5.1829,13.4146
-0.072021,0.242432,-0.909363,-1.6768,-5.2744,13.1402
-0.076538,0.243469,-0.912415,-2.0732,-5.3659,12.8354
-0.080688,0.244141,-0.915161,-2.4695,-5.4878,12.5305
-0.084778,0.244568,-0.917786,-2.8963,-5.6402,12.2256
-0.088928,0.244568,-0.920227,-3.2622,-5.8232,11.9207
-0.092773,0.244324,-0.922119,-3.6280,-6.0366,11.6159
-0.096436,0.243896,-0.923645,-3.9329,-6.2500,11.2805
-0.100037,0.243164,-0.924866,-4.2073,-6.4634,10.9756
-0.103516,0.242004,-0.925781,-4.4207,-6.7073,10.6098
-0.106567,0.240540,-0.926331,-4.6037,-6.9207,10.2439
-0.109375,0.238647,-0.926514,-4.7256,-7.1341,9.8476
-0.112061,0.236328,-0.926392,-4.8171,-7.3476,9.4512
-0.114258,0.233765,-0.926025,-4.8780,-7.5000,9.0549
-0.116333,0.231079,-0.925476,-4.8780,-7.6829,8.6280
-0.118164,0.228210,-0.924683,-4.8780,-7.8049,8.2317
-0.119873,0.225159,-0.923828,-4.8171,-7.8963,7.8354
-0.121338,0.222290,-0.922791,-4.7561,-7.9573,7.4695
-0.122681,0.219482,-0.921814,-4.6951,-7.9878,7.1037
-0.124023,0.216675,-0.920837,-4.6037,-7.9878,6.7683
-0.125244,0.214172,-0.920044,-4.4817,-7.9878,6.4634
-0.126465,0.211670,-0.919312,-4.3598,-7.9268,6.1280
-0.127686,0.209229,-0.918762,-4.2073,-7.8659,5.8232
-0.128967,0.206665,-0.918457,-4.0244,-7.7439,5.5488
-0.130249,0.204224,-0.918396,-3.8415,-7.6524,5.2439
-0.131592,0.201782,-0.918579,-3.6280,-7.5000,4.9085
-0.133057,0.199158,-0.919067,-3.4146,-7.3780,4.6341
-0.134460,0.196655,-0.919739,-3.1707,-7.2561,4.3293
-0.135864,0.194153,-0.920593,-2.8963,-7.1341,3.9939
-0.137207,0.191589,-0.921814,-2.6524,-7.0122,3.6890
-0.138550,0.189026,-0.923218,-2.4085,-6.8902,3.3841
-0.139709,0.186707,-0.924683,-2.1341,-6.7988,3.0488
-0.140869,0.184509,-0.926392,-1.9207,-6.7378,2.7439
-0.142029,0.182251,-0.928345,-1.7073,-6.6768,2.4390
-0.143066,0.180176,-0.930420,-1.4939,-6.6463,2.1341
-0.144043,0.178040,-0.932617,-1.3415,-6.6159,1.8293
-0.145142,0.175842,-0.934998,-1.1890,-6.6463,1.5244
-0.146240,0.173706,-0.937378,-1.0976,-6.6768,1.2195
-0.147400,0.171570,-0.939880,-1.0671,-6.7378,0.9451
-0.148621,0.169373,-0.942444,-1.0366,-6.8293,0.7012
-0.149902,0.167053,-0.945251,-1.0976,-6.9512,0.4573
-0.151184,0.164856,-0.947815,-1.1585,-7.0732,0.2744
-0.152466,0.162720,-0.950500,-1.2805,-7.2561,0.0610
-0.153931,0.160522,-0.953308,-1.4329,-7.4695,-0.0915
-0.155273,0.158508,-0.955811,-1.6159,-7.7134,-0.2439
-0.156616,0.156616,-0.958130,-1.8293,-7.9878,-0.3963
-0.157898,0.154785,-0.960327,-2.0732,-8.3232,-0.5183
-0.159302,0.152710,-0.962463,-2.3476,-8.6585,-0.6402
-0.160706,0.150757,-0.964172,-2.6220,-9.0549,-0.7622
-0.162048,0.148804,-0.965698,-2.9573,-9.5122,-0.8841
-0.163513,0.146790,-0.966858,-3.2622,-9.9390,-1.0061
-0.164856,0.144897,-0.967285,-3.5976,-10.4268,-1.0976
-0.166138,0.143066,-0.967407,-3.9024,-10.9451,-1.1890
-0.167419,0.141296,-0.967163,-4.2073,-11.4329,-1.2500
-0.168701,0.139648,-0.966248,-4.5122,-11.9512,-1.3415
-0.169861,0.138245,-0.964783,-4.7866,-12.4390,-1.4024
-0.170959,0.137085,-0.962708,-5.0915,-12.9268,-1.4939
-0.172058,0.136047,-0.959961,-5.3354,-13.3841,-1.5549
-0.173096,0.135376,-0.956909,-5.5793,-13.7805,-1.6463
-0.174072,0.134827,-0.953552,-5.8537,-14.1768,-1.7378
-0.175110,0.134460,-0.949707,-6.0976,-14.5122,-1.8293
-0.176208,0.134338,-0.945618,-6.3720,-14.8171,-1.9207
-0.177246,0.134460,-0.941528,-6.6768,-15.1220,-2.0427
-0.178406,0.134766,-0.937378,-6.9512,-15.3354,-2.1646
-0.179565,0.135376,-0.932983,-7.2256,-15.5183,-2.2866
-0.180664,0.136108,-0.928772,-7.5305,-15.7012,-2.4085
-0.181824,0.137085,-0.924561,-7.8354,-15.8232,-2.5915
-0.183044,0.138306,-0.920288,-8.1098,-15.9146,-2.7439
-0.184265,0.139648,-0.916321,-8.3537,-15.9756,-2.9268
-0.185547,0.140930,-0.912476,-8.6280,-15.9756,-3.1707
-0.186829,0.142273,-0.908752,-8.8720,-15.9756,-3.4146
-0.188171,0.143738,-0.905090,-9.0854,-15.9146,-3.6890
-0.189636,0.145203,-0.901794,-9.2683,-15.8232,-3.9634
-0.191101,0.146606,-0.898743,-9.4512,-15.7012,-4.2988
-0.192749,0.148132,-0.895874,-9.5732,-15.5488,-4.6341
-0.194336,0.149597,-0.893494,-9.6951,-15.3659,-5.0000
-0.195984,0.151123,-0.891418,-9.8171,-15.1524,-5.3963
-0.197632,0.152649,-0.889526,-9.8780,-14.9085,-5.8232
-0.199402,0.154419,-0.888000,-9.9085,-14.6646,-6.2195
-0.201111,0.156189,-0.886963,-9.9390,-14.3902,-6.7073
-0.202820,0.158081,-0.886292,-9.9390,-14.0854,-7.1646
-0.204590,0.160278,-0.885986,-9.9390,-13.7805,-7.6524
-0.206421,0.162598,-0.886108,-9.8780,-13.4756,-8.1402
-0.208252,0.165039,-0.886597,-9.8171,-13.1707,-8.6890
-0.210327,0.167786,-0.887390,-9.7561,-12.8354,-9.2073
-0.212402,0.170715,-0.888550,-9.6646,-12.5305,-9.7561
-0.214539,0.173584,-0.889954,-9.5427,-12.1951,-10.3659
-0.216797,0.176514,-0.891541,-9.4207,-11.8902,-10.9756
-0.219238,0.179504,-0.893494,-9.2988,-11.5854,-11.5854
-0.221619,0.182251,-0.895447,-9.1463,-11.3110,-12.2256
-0.223999,0.184814,-0.897522,-8.9634,-11.0366,-12.8963
-0.226501,0.187256,-0.899719,-8.8110,-10.7927,-13.5976
-0.228760,0.189331,-0.901794,-8.6280,-10.5793,-14.2683
-0.231018,0.191101,-0.903809,-8.4756,-10.3659,-15.0305
-0.233215,0.192688,-0.905701,-8.3232,-10.2134,-15.7622
-0.235291,0.194153,-0.907654,-8.1707,-10.0610,-16.4634
-0.237061,0.195251,-0.909302,-8.0183,-9.9085,-17.1951
-0.238708,0.196167,-0.910889,-7.8659,-9.8171,-17.9878
-0.240295,0.197021,-0.912476,-7.7439,-9.7256,-18.7195
-0.241638,0.197693,-0.913940,-7.6220,-9.6341,-19.4512
-0.242920,0.198242,-0.915405,-7.4695,-9.5427,-20.2134
-0.244019,0.198730,-0.916748,-7.3171,-9.4817,-20.9451
-0.245117,0.199158,-0.918274,-7.1646,-9.4207,-21.6768
-0.246094,0.199463,-0.919617,-7.0122,-9.3598,-22.4085
-0.247009,0.199768,-0.920959,-6.8293,-9.2683,-23.1707
-0.247925,0.199951,-0.922302,-6.6463,-9.1768,-23.9024
-0.248596,0.199951,-0.923462,-6.4939,-9.1159,-24.6341
-0.249207,0.199890,-0.924561,-6.2805,-8.9939,-25.4268
-0.249695,0.199829,-0.925537,-6.0976,-8.9024,-26.1585
-0.250061,0.199646,-0.926453,-5.9146,-8.8110,-26.9207
-0.250244,0.199280,-0.927185,-5.7012,-8.6890,-27.6829
-0.250305,0.198792,-0.927734,-5.4878,-8.5671,-28.4756
-0.250183,0.198059,-0.928284,-5.2744,-8.4451,-29.2378
-0.249939,0.197205,-0.928711,-5.0610,-8.3232,-29.9695
-0.249634,0.196228,-0.929016,-4.8476,-8.1707,-30.7622
-0.249268,0.195068,-0.929260,-4.6341,-8.0488,-31.4939
-0.248779,0.193726,-0.929443,-4.4512,-7.8963,-32.2256
-0.248291,0.192261,-0.929504,-4.2378,-7.7439,-32.9878
-0.247742,0.190735,-0.929565,-4.0244,-7.5915,-33.6890
-0.247070,0.189148,-0.929749,-3.8720,-7.4390,-34.3902
-0.246460,0.187744,-0.929932,-3.6890,-7.2866,-35.0610
-0.245850,0.186340,-0.930237,-3.5366,-7.1037,-35.7622
-0.245117,0.185120,-0.930969,-3.3841,-6.9207,-36.4329
-0.244446,0.184143,-0.931946,-3.2317,-6.7378,-37.0732
-0.243774,0.183411,-0.933228,-3.0793,-6.5549,-37.7439
-0.243103,0.182922,-0.934753,-2.9268,-6.3415,-38.3841
-0.242554,0.182739,-0.936829,-2.8049,-6.1585,-38.9939
-0.242065,0.182739,-0.939087,-2.6524,-5.9756,-39.6341
-0.241577,0.182739,-0.941589,-2.5000,-5.7927,-40.2744
-0.241211,0.182800,-0.944458,-2.3780,-5.6098,-40.9146
-0.240967,0.182678,-0.947327,-2.2561,-5.4268,-41.5244
-0.240723,0.182495,-0.950256,-2.1646,-5.2744,-42.1646
-0.240356,0.182129,-0.953369,-2.1037,-5.1524,-42.7439
-0.239868,0.181458,-0.956665,-2.0732,-5.0305,-43.3537
-0.239136,0.180542,-0.959961,-2.0427,-4.9390,-43.9024
-0.238220,0.179504,-0.963196,-2.0427,-4.8780,-44.4817
-0.237061,0.178223,-0.966797,-2.0732,-4.8476,-45.0000
-0.235718,0.176880,-0.970215,-2.1341,-4.8171,-45.4878
-0.234192,0.175537,-0.973694,-2.1951,-4.8476,-45.9756
-0.232666,0.174194,-0.977112,-2.2561,-4.8476,-46.4024
-0.230957,0.172852,-0.980713,-2.3171,-4.8780,-46.7988
-0.229492,0.171631,-0.984192,-2.3780,-4.9390,-47.1646
-0.228027,0.170471,-0.987671,-2.4390,-4.9695,-47.5305
-0.226685,0.169434,-0.991516,-2.5000,-5.0000,-47.8354
-0.225586,0.168579,-0.995239,-2.5610,-5.0305,-48.1098
-0.224670,0.167969,-0.998962,-2.6220,-5.0610,-48.3841
-0.223816,0.167603,-1.003113,-2.6524,-5.0915,-48.5976
-0.223022,0.167480,-1.007324,-2.6829,-5.1220,-48.8110
-0.222351,0.167664,-1.011536,-2.7439,-5.1220,-49.0549
-0.221741,0.168152,-1.015808,-2.8049,-5.1524,-49.2378
-0.221313,0.169006,-1.020264,-2.8659,-5.2134,-49.4207
-0.221069,0.170166,-1.024536,-2.9268,-5.2439,-49.6037
-0.221008,0.171387,-1.028687,-3.0183,-5.3354,-49.7866
-0.221008,0.172852,-1.032959,-3.1402,-5.4268,-49.9695
-0.221191,0.174316,-1.036743,-3.2317,-5.5488,-50.1220
-0.221497,0.175781,-1.040344,-3.3841,-5.7317,-50.3049
-0.221985,0.177185,-1.043640,-3.5366,-5.9451,-50.4573
-0.222595,0.178528,-1.046631,-3.7195,-6.1890,-50.6098
-0.223145,0.179688,-1.049011,-3.9024,-6.4329,-50.7622
-0.223755,0.180664,-1.051025,-4.1463,-6.7683,-50.9146
-0.224426,0.181702,-1.052551,-4.4207,-7.1341,-51.0671
-0.225037,0.182556,-1.053406,-4.6951,-7.5000,-51.2195
-0.225708,0.183350,-1.053772,-5.0610,-7.8963,-51.3720
-0.226379,0.184143,-1.053711,-5.3963,-8.2927,-51.4939
-0.227112,0.184998,-1.053101,-5.7927,-8.7195,-51.6463
-0.227844,0.185913,-1.052063,-6.1890,-9.1159,-51.7683
-0.228577,0.186890,-1.050659,-6.6159,-9.5122,-51.8902
-0.229309,0.188049,-1.048706,-7.0122,-9.9085,-52.0122
-0.229980,0.189148,-1.046326,-7.4390,-10.2439,-52.1341
-0.230652,0.190308,-1.043701,-7.8659,-10.5793,-52.2256
-0.231140,0.191467,-1.040955,-8.2622,-10.8537,-52.3171
-0.231689,0.192749,-1.037720,-8.6585,-11.0976,-52.4085
-0.232117,0.193909,-1.034424,-9.0549,-11.3110,-52.5305
-0.232422,0.195007,-1.030884,-9.4512,-11.4634,-52.6220
-0.232666,0.196045,-1.027100,-9.7866,-11.5549,-52.7134
-0.232788,0.196899,-1.023376,-10.1220,-11.5854,-52.8049
-0.232788,0.197754,-1.019653,-10.4878,-11.5854,-52.8963
-0.232788,0.198669,-1.015686,-10.8232,-11.4939,-52.9573
-0.232727,0.199585,-1.011841,-11.1890,-11.4024,-53.0488
-0.232605,0.200500,-1.008362,-11.5549,-11.1890,-53.1098
-0.232422,0.201599,-1.005005,-11.9207,-10.9756,-53.1707
-0.232239,0.203186,-1.001648,-12.3171,-10.6707,-53.2012
-0.231995,0.205139,-0.998901,-12.6829,-10.3659,-53.2622
-0.231812,0.207703,-0.996582,-13.1098,-9.9390,-53.2927
-0.231750,0.211426,-0.994690,-13.4451,-9.4817,-53.3537
-0.231628,0.215759,-0.993225,-13.7195,-8.9634,-53.4146
-0.231384,0.220642,-0.992126,-13.9329,-8.3232,-53.5366
-0.231079,0.225830,-0.991455,-14.0244,-7.6220,-53.6890
-0.230530,0.231567,-0.991455,-14.0244,-6.8598,-53.8720
-0.229919,0.237305,-0.992310,-13.9634,-6.0366,-54.0549
-0.229187,0.243347,-0.993896,-13.8110,-5.1220,-54.2378
-0.228333,0.250000,-0.996765,-13.5976,-4.1768,-54.4207
-0.227539,0.256409,-1.000610,-13.3841,-3.1707,-54.5732
-0.226868,0.263123,-1.005676,-13.1707,-2.1341,-54.7256
-0.226440,0.270203,-1.011902,-12.9878,-1.1280,-54.8171
-0.226501,0.278442,-1.020020,-12.8354,-0.1524,-54.9085
-0.227051,0.287109,-1.029175,-12.7134,0.7927,-55.0000
-0.228088,0.296265,-1.039307,-12.5610,1.7378,-55.1220
-0.229858,0.306458,-1.051147,-12.3780,2.6220,-55.3049
-0.231995,0.316406,-1.063293,-12.1951,3.4146,-55.5183
-0.234497,0.326294,-1.075928,-11.9207,4.2073,-55.7927
-0.237305,0.336426,-1.089722,-11.6159,4.8780,-56.1585
-0.240173,0.346191,-1.103699,-11.2805,5.4878,-56.5854
-0.242798,0.354919,-1.117065,-10.9146,6.0366,-57.1341
-0.245178,0.363037,-1.130249,-10.4878,6.4939,-57.7439
-0.247192,0.370605,-1.143799,-10.0915,6.7988,-58.3841
-0.248596,0.376953,-1.156067,-9.6951,7.0122,-59.0549
-0.249573,0.382507,-1.167786,-9.3293,7.1341,-59.8171
-0.249939,0.387512,-1.179260,-8.9939,7.1037,-60.5488
-0.249817,0.391479,-1.189148,-8.7195,6.9817,-61.3110
-0.249329,0.394775,-1.198303,-8.4756,6.7683,-62.0732
-0.248596,0.397461,-1.206543,-8.3232,6.4329,-62.7744
-0.247620,0.399780,-1.213928,-8.2317,6.0366,-63.4451
-0.246521,0.401428,-1.219788,-8.1707,5.5488,-64.1159
-0.245300,0.402771,-1.224609,-8.2012,5.0000,-64.7561
-0.244019,0.403748,-1.228394,-8.3232,4.3902,-65.3659
-0.242615,0.404297,-1.230774,-8.4756,3.7500,-65.9451
-0.241089,0.404541,-1.232239,-8.7195,3.0488,-66.5549
-0.239441,0.404419,-1.232849,-9.0244,2.3476,-67.1341
-0.237366,0.403687,-1.232422,-9.3598,1.6159,-67.6829
-0.235107,0.402588,-1.231079,-9.7256,0.9146,-68.2317
-0.232666,0.401062,-1.228882,-10.1220,0.1524,-68.7805
-0.229797,0.399170,-1.225647,-10.5183,-0.5183,-69.2683
-0.226929,0.397217,-1.221802,-10.9451,-1.1890,-69.7866
-0.223999,0.395264,-1.217407,-11.3720,-1.8598,-70.3049
-0.221069,0.393433,-1.212463,-11.7683,-2.4695,-70.7927
-0.218018,0.391846,-1.206665,-12.1341,-3.0183,-71.2500
-0.215210,0.390808,-1.200562,-12.4695,-3.5366,-71.7988
-0.212463,0.390015,-1.193970,-12.7744,-4.0244,-72.3476
-0.209656,0.389526,-1.186584,-12.9878,-4.3902,-72.9268
-0.207031,0.389282,-1.179199,-13.1402,-4.6951,-73.5061
-0.204407,0.389099,-1.171631,-13.2317,-4.9695,-74.2073
-0.201538,0.388855,-1.163391,-13.2317,-5.0915,-74.9085
-0.198547,0.388550,-1.154968,-13.1402,-5.1829,-75.6402
-0.195618,0.388062,-1.146912,-12.9573,-5.1829,-76.4634
-0.192566,0.387451,-1.138794,-12.7134,-5.0610,-77.2866
-0.189270,0.386536,-1.130310,-12.4085,-4.9085,-78.1402
-0.185974,0.385498,-1.122498,-12.0427,-4.6951,-78.9939
-0.182678,0.384216,-1.114990,-11.6159,-4.3902,-79.9695
-0.179138,0.382568,-1.107422,-11.1585,-4.0244,-80.8841
-0.175842,0.380676,-1.100708,-10.6707,-3.6280,-81.8293
-0.172546,0.378479,-1.094360,-10.1524,-3.2012,-82.8659
-0.169312,0.375916,-1.088440,-9.6341,-2.7439,-83.8415
-0.166016,0.372620,-1.082947,-9.1159,-2.2561,-84.8476
-0.163086,0.369141,-1.078430,-8.5976,-1.7988,-85.8537
-0.160156,0.365173,-1.074646,-8.0183,-1.2805,-86.9207
-0.157104,0.360474,-1.071472,-7.4390,-0.8537,-87.9268
-0.154358,0.355591,-1.069214,-6.8598,-0.4268,-88.9329
-0.151611,0.350464,-1.067566,-6.1890,-0.0305,-89.9695
-0.148926,0.344971,-1.066467,-5.5488,0.3049,-90.9451
-0.146057,0.338684,-1.065857,-4.8476,0.5793,-91.8902
-0.143250,0.332397,-1.065674,-4.1159,0.8232,-92.8354
-0.140442,0.325745,-1.065613,-3.3232,0.9756,-93.8110
-0.137390,0.318298,-1.065430,-2.5305,1.0366,-94.6951
-0.134399,0.310852,-1.065063,-1.7378,1.0366,-95.5488
-0.131348,0.303162,-1.064392,-0.8841,0.9451,-96.4329
-0.128174,0.295166,-1.063293,-0.0915,0.7927,-97.1951
-0.124634,0.286682,-1.061401,0.7012,0.5488,-97.9268
-0.121155,0.278503,-1.058899,1.4939,0.2439,-98.6585
-0.117493,0.270325,-1.055847,2.2256,-0.1220,-99.3293
-0.113708,0.261902,-1.051697,2.8963,-0.5488,-99.8781
-0.110107,0.254089,-1.046875,3.4756,-1.0061,-100.3659
-0.106567,0.246582,-1.041382,4.0244,-1.5244,-100.8232
-0.102966,0.238953,-1.034729,4.4512,-2.0732,-101.1585
-0.099426,0.231689,-1.027466,4.7866,-2.5915,-101.4634
-0.096252,0.225159,-1.019836,5.0610,-3.1707,-101.7073
-0.093140,0.218872,-1.011658,5.2439,-3.7195,-101.8902
-0.090088,0.212646,-1.002502,5.3354,-4.2683,-102.0122
-0.087341,0.207092,-0.993225,5.3659,-4.8171,-102.1037
-0.084534,0.201904,-0.983582,5.3354,-5.3659,-102.1341
-0.081665,0.196716,-0.973022,5.2134,-5.8537,-102.1341
-0.079041,0.192200,-0.962769,5.0610,-6.3415,-102.1037
-0.076477,0.187988,-0.952454,4.8476,-6.7988,-102.0122
-0.074036,0.184082,-0.941956,4.6037,-7.1951,-101.8902
-0.071594,0.180481,-0.930847,4.3293,-7.5305,-101.7683
-0.069336,0.177551,-0.920349,4.0549,-7.8354,-101.6159
-0.067139,0.174927,-0.909912,3.7805,-8.1098,-101.4329
-0.065002,0.172546,-0.899170,3.5366,-8.2622,-101.2500
-0.063171,0.170776,-0.889221,3.3232,-8.3841,-101.0366
-0.061462,0.169312,-0.879395,3.1402,-8.4146,-100.7927
-0.059875,0.168152,-0.869812,3.0183,-8.3841,-100.5793
-0.058411,0.167419,-0.860229,2.9268,-8.2622,-100.3659
-0.057129,0.167053,-0.851501,2.9268,-8.1098,-100.1524
-0.056030,0.166992,-0.843262,3.0183,-7.8659,-99.9085
-0.054932,0.167175,-0.835205,3.1402,-7.5305,-99.6951
-0.054077,0.167542,-0.828308,3.3537,-7.1341,-99.4817
-0.053284,0.168030,-0.821960,3.6890,-6.6768,-99.2683
-0.052490,0.168640,-0.816223,4.0549,-6.1585,-99.0549
-0.051758,0.169312,-0.810974,4.5122,-5.5793,-98.8720
-0.051025,0.170044,-0.806824,5.0610,-4.9085,-98.6585
-0.050354,0.170959,-0.803223,5.6707,-4.2073,-98.4451
-0.049683,0.172119,-0.800293,6.3110,-3.4756,-98.2317
-0.049072,0.173462,-0.798279,6.9817,-2.7134,-98.0183
-0.048462,0.175049,-0.796936,7.7744,-1.8902,-97.8049
-0.047852,0.177063,-0.796387,8.5366,-1.0671,-97.5610
-0.047241,0.179260,-0.796570,9.3293,-0.2134,-97.3476
-0.046753,0.181641,-0.797607,10.1829,0.6707,-97.1037
-0.046387,0.184143,-0.799316,11.0366,1.5549,-96.8293
-0.046021,0.186829,-0.802002,11.8902,2.4085,-96.5549
-0.045776,0.189453,-0.805298,12.7134,3.2622,-96.2805
-0.045654,0.192139,-0.809143,13.5976,4.1768,-95.9451
-0.045654,0.194946,-0.813843,14.4207,5.0000,-95.6098
-0.045715,0.197754,-0.818970,15.2134,5.7927,-95.2744
-0.045898,0.200562,-0.824402,16.0061,6.5854,-94.8781
-0.046021,0.203491,-0.830139,16.7378,7.3171,-94.4817
-0.046204,0.206665,-0.836487,17.4390,7.9878,-94.0854
-0.046326,0.209900,-0.842773,18.0793,8.5976,-93.6585
-0.046448,0.213257,-0.849243,18.7195,9.1768,-93.1707
-0.046387,0.216980,-0.856079,19.2683,9.6646,-92.6829
-0.046204,0.220703,-0.862610,19.7561,10.0915,-92.1951
-0.045959,0.224548,-0.869080,20.2439,10.4878,-91.6159
-0.045593,0.228516,-0.875549,20.6402,10.8232,-91.0671
-0.045166,0.233032,-0.882385,21.0061,11.0976,-90.4878
-0.044739,0.237549,-0.888794,21.3110,11.3415,-89.8781
-0.044250,0.242432,-0.895142,21.6159,11.5854,-89.2073
-0.043884,0.247864,-0.901855,21.8598,11.7988,-88.5366
-0.043701,0.253479,-0.908386,22.0732,11.9817,-87.8659
-0.043579,0.259399,-0.914978,22.2561,12.1951,-87.1646
-0.043579,0.265564,-0.921692,22.4390,12.4085,-86.4939
-0.043823,0.272400,-0.929077,22.5610,12.6220,-85.8537
-0.044250,0.279114,-0.936279,22.7134,12.8354,-85.1829
-0.044800,0.285767,-0.943726,22.8354,13.0793,-84.5427
-0.045532,0.292664,-0.951843,22.9268,13.3232,-83.9329
-0.046387,0.298950,-0.959656,23.0488,13.5671,-83.3537
-0.047241,0.304993,-0.967529,23.1098,13.8110,-82.7744
-0.048279,0.310913,-0.975891,23.1707,13.9939,-82.2561
-0.049377,0.316406,-0.984253,23.2012,14.1768,-81.7378
-0.050415,0.320984,-0.992004,23.2317,14.2988,-81.2195
-0.051453,0.325134,-0.999573,23.2012,14.3293,-80.7317
-0.052551,0.328918,-1.007080,23.1402,14.3293,-80.2439
-0.053528,0.331909,-1.013794,23.0793,14.2683,-79.7866
-0.054382,0.334412,-1.020081,22.9573,14.1159,-79.2988
-0.055237,0.336304,-1.026001,22.7744,13.8720,-78.8415
-0.055847,0.337524,-1.030823,22.5915,13.5366,-78.3537
-0.056458,0.338379,-1.034912,22.3171,13.1098,-77.8659
-0.056885,0.338806,-1.038208,22.0427,12.6220,-77.3781
-0.057251,0.338928,-1.040710,21.7073,12.0732,-76.8902
-0.057495,0.338623,-1.041992,21.3110,11.4634,-76.3720
-0.057556,0.338135,-1.042419,20.8537,10.7927,-75.8232
-0.057495,0.337463,-1.041748,20.3354,10.0610,-75.2744
-0.057312,0.336792,-1.040100,19.7866,9.3293,-74.7256
-0.057129,0.336060,-1.037537,19.1463,8.5671,-74.1159
-0.056885,0.335144,-1.034302,18.5061,7.8049,-73.5366
-0.056580,0.334045,-1.029907,17.8354,7.0427,-72.9573
-0.056213,0.332947,-1.024902,17.1341,6.2805,-72.3781
-0.055847,0.331665,-1.019226,16.3720,5.5183,-71.7683
-0.055420,0.330261,-1.012451,15.6402,4.7866,-71.2195
-0.055115,0.328735,-1.005432,14.8780,4.1159,-70.6707
-0.054688,0.327087,-0.997864,14.0549,3.4451,-70.0915
-0.054138,0.325195,-0.989380,13.2927,2.8354,-69.5732
-0.053589,0.323120,-0.980530,12.5000,2.2561,-69.0549
-0.052979,0.320984,-0.971741,11.6768,1.7073,-68.5366
-0.052307,0.318604,-0.962830,10.8537,1.1890,-68.0183
-0.051392,0.315857,-0.953308,10.0610,0.7622,-67.5305
-0.050293,0.312866,-0.944275,9.2683,0.3659,-67.0427
-0.049133,0.309570,-0.935486,8.4451,0.0305,-66.5549
-0.047607,0.305664,-0.926758,7.6829,-0.2744,-66.0671
-0.046082,0.301636,-0.918884,6.9207,-0.5183,-65.5793
-0.044434,0.297607,-0.911499,6.1585,-0.7317,-65.0915
-0.042847,0.293579,-0.904541,5.4573,-0.8841,-64.6037
-0.041321,0.289429,-0.897949,4.7561,-1.0061,-64.1159
-0.040100,0.285767,-0.892395,4.0854,-1.0976,-63.6281
-0.039062,0.282349,-0.887451,3.4451,-1.1585,-63.1402
-0.038147,0.279236,-0.882996,2.8659,-1.1890,-62.6829
-0.037598,0.276855,-0.879395,2.3476,-1.2195,-62.2561
-0.037109,0.274780,-0.876404,1.8902,-1.2805,-61.8293
-0.036743,0.272888,-0.873901,1.4939,-1.3110,-61.4939
-0.036194,0.270996,-0.872009,1.1890,-1.3720,-61.1585
-0.035522,0.269287,-0.870728,0.9756,-1.4329,-60.8537
-0.034729,0.267517,-0.869873,0.8232,-1.5244,-60.5793
-0.033813,0.265381,-0.869324,0.7622,-1.6159,-60.3354
-0.032898,0.263184,-0.869141,0.7927,-1.7378,-60.0915
-0.031860,0.260620,-0.869141,0.8841,-1.8598,-59.8781
-0.030762,0.257874,-0.869202,1.0671,-1.9817,-59.6951
-0.029602,0.254578,-0.869385,1.2805,-2.1037,-59.4817
-0.028564,0.251160,-0.869568,1.6159,-2.2256,-59.2988
-0.027405,0.247559,-0.869751,1.9817,-2.3476,-59.1159
-0.026062,0.243469,-0.869934,2.3780,-2.4390,-58.9329
-0.024658,0.239441,-0.870056,2.8049,-2.5305,-58.7195
-0.023132,0.235291,-0.870056,3.2927,-2.5915,-58.5366
-0.021240,0.230896,-0.869995,3.7805,-2.6220,-58.3232
-0.019165,0.226379,-0.869873,4.2683,-2.6524,-58.1098
-0.017029,0.222107,-0.869629,4.7561,-2.6524,-57.8354
-0.014832,0.217834,-0.869385,5.2134,-2.6524,-57.5610
-0.012512,0.213257,-0.869080,5.6402,-2.6220,-57.2561
-0.010376,0.208801,-0.868835,6.0061,-2.5610,-56.9207
-0.008301,0.204285,-0.868652,6.3110,-2.5000,-56.5244
-0.006287,0.199524,-0.868530,6.5549,-2.4085,-56.0976
-0.004578,0.195007,-0.868408,6.7073,-2.3171,-55.6402
-0.003052,0.190552,-0.868408,6.7988,-2.2561,-55.1220
-0.001648,0.186157,-0.868469,6.7988,-2.1646,-54.5732
-0.000366,0.181580,-0.868652,6.7378,-2.1037,-54.0244
0.000793,0.177429,-0.868958,6.6159,-2.0732,-53.4146
0.001831,0.173401,-0.869324,6.4024,-2.0427,-52.7744
0.002869,0.169312,-0.869751,6.1585,-2.0427,-52.1341
0.003723,0.165649,-0.870178,5.8537,-2.0732,-51.4634
0.004578,0.162109,-0.870605,5.4878,-2.1341,-50.7622
0.005371,0.158691,-0.871094,5.1220,-2.2256,-50.0610
0.006165,0.155334,-0.871460,4.7256,-2.3476,-49.3598
0.006897,0.152405,-0.871643,4.3293,-2.5000,-48.6281
0.007568,0.149597,-0.871704,3.9024,-2.6829,-47.8659
0.008179,0.147034,-0.871582,3.4756,-2.8659,-47.1341
0.008667,0.144836,-0.871216,3.0793,-3.0488,-46.3720
0.009094,0.142822,-0.870728,2.6829,-3.2927,-45.5793
0.009399,0.141113,-0.870056,2.2866,-3.4756,-44.8171
0.009521,0.139587,-0.869080,1.9207,-3.6890,-44.0854
0.009521,0.138367,-0.867920,1.5854,-3.8720,-43.2927
0.009460,0.137451,-0.866577,1.2195,-4.0854,-42.5000
0.009338,0.136719,-0.864990,0.9146,-4.2378,-41.7683
0.009155,0.136230,-0.863281,0.6402,-4.3902,-41.0366
0.008911,0.135864,-0.861389,0.3659,-4.5122,-40.2744
0.008728,0.135742,-0.859253,0.1220,-4.6037,-39.5732
0.008545,0.135681,-0.857056,-0.0915,-4.6646,-38.8720
0.008362,0.135742,-0.854858,-0.3354,-4.7256,-38.1402
0.008179,0.135864,-0.852661,-0.5183,-4.7256,-37.4390
0.007935,0.136108,-0.850464,-0.7012,-4.7256,-36.7683
0.007690,0.136475,-0.848511,-0.8841,-4.6951,-36.0671
0.007385,0.136963,-0.846802,-1.0671,-4.6037,-35.3659
0.006958,0.137634,-0.845276,-1.2500,-4.5122,-34.6646
0.006470,0.138550,-0.844177,-1.4024,-4.4207,-33.9939
0.005859,0.139709,-0.843445,-1.5244,-4.2683,-33.2927
0.005127,0.141113,-0.843079,-1.6463,-4.0854,-32.6220
0.004272,0.142822,-0.843201,-1.7378,-3.9024,-31.9817
0.003296,0.144714,-0.843811,-1.7988,-3.6890,-31.3415
0.002319,0.146729,-0.844788,-1.8293,-3.4756,-30.7012
0.001099,0.148987,-0.846130,-1.7988,-3.2317,-30.1220
-0.000122,0.151184,-0.847778,-1.7683,-2.9878,-29.5427
-0.001404,0.153442,-0.849670,-1.6768,-2.7439,-28.9329
-0.002747,0.155640,-0.851807,-1.5854,-2.5000,-28.4146
-0.004089,0.158081,-0.854248,-1.4634,-2.2866,-27.8659
-0.005310,0.160461,-0.856750,-1.3415,-2.0427,-27.3476
-0.006592,0.162903,-0.859375,-1.1585,-1.8293,-26.7988
-0.007874,0.165649,-0.862427,-0.9756,-1.6159,-26.3110
-0.009094,0.168274,-0.865540,-0.7622,-1.4329,-25.8232
-0.010315,0.170898,-0.868713,-0.5488,-1.2500,-25.3354
-0.011536,0.173584,-0.872009,-0.3049,-1.0671,-24.8780
-0.012756,0.176392,-0.875671,-0.0610,-0.8841,-24.4207
-0.013977,0.178894,-0.879211,0.2134,-0.7012,-23.9634
-0.015137,0.181213,-0.882751,0.4878,-0.5183,-23.5061
-0.016418,0.183533,-0.886475,0.7622,-0.3354,-23.0793
-0.017578,0.185486,-0.890015,1.0061,-0.1524,-22.6524
-0.018738,0.187378,-0.893555,1.2805,0.0305,-22.1951
-0.019897,0.189392,-0.897217,1.5549,0.2134,-21.7683
-0.021057,0.191345,-0.900818,1.7988,0.3963,-21.3720
-0.022156,0.193115,-0.904175,2.0732,0.6098,-20.9146
-0.023193,0.195007,-0.907593,2.3171,0.7927,-20.5183
-0.024231,0.197021,-0.911133,2.5610,0.9451,-20.1220
-0.025208,0.198853,-0.914490,2.8049,1.1280,-19.6951
-0.026184,0.200745,-0.917786,3.0183,1.2805,-19.2683
-0.027100,0.202637,-0.921265,3.2317,1.4024,-18.8415
-0.027954,0.204346,-0.924500,3.4146,1.5549,-18.4451
-0.028687,0.206055,-0.927612,3.5671,1.6463,-17.9878
-0.029358,0.207764,-0.930664,3.6890,1.7378,-17.5610
-0.030090,0.209595,-0.933716,3.7805,1.8293,-17.1341
-0.030701,0.211365,-0.936462,3.8415,1.8902,-16.7073
-0.031189,0.213196,-0.939087,3.8720,1.9512,-16.2500
-0.031738,0.215332,-0.941711,3.8720,1.9817,-15.8232
-0.032166,0.217773,-0.944275,3.8110,2.0122,-15.3963
-0.032593,0.220337,-0.946716,3.7500,2.0427,-14.9695
-0.032959,0.222839,-0.948914,3.6890,2.0732,-14.6341
-0.033203,0.225037,-0.950989,3.6280,2.0732,-14.2988
-0.033081,0.226562,-0.952820,3.5671,2.1037,-13.9939
-0.032837,0.227417,-0.954468,3.5061,2.1037,-13.6585
-0.032227,0.227722,-0.956238,3.4451,2.1037,-13.3232
-0.031372,0.227295,-0.957703,3.3841,2.1037,-12.9573
-0.030273,0.226318,-0.958984,3.3232,2.0427,-12.5305
-0.028992,0.224976,-0.960266,3.2012,1.9817,-12.0732
-0.027527,0.223267,-0.961670,3.0488,1.8902,-11.5549
-0.026001,0.221680,-0.962952,2.8659,1.7683,-10.9756
-0.024536,0.220337,-0.964233,2.6524,1.6159,-10.3659
-0.023254,0.219116,-0.965637,2.4085,1.4329,-9.7866
-0.022278,0.218262,-0.966919,2.1646,1.2500,-9.2073
-0.021423,0.217468,-0.968140,1.9512,1.0671,-8.6585
-0.020874,0.216370,-0.969299,1.7683,0.9146,-8.1707
-0.020447,0.214966,-0.970276,1.6463,0.7622,-7.7134
-0.020142,0.213379,-0.971069,1.5854,0.6402,-7.2561
-0.019775,0.211365,-0.971619,1.5549,0.5793,-6.8598
-0.019226,0.208679,-0.971741,1.5854,0.5488,-6.4634
-0.018433,0.205505,-0.971497,1.6768,0.5183,-6.0976
-0.017334,0.201965,-0.970886,1.7683,0.5488,-5.7012
-0.015686,0.197815,-0.969788,1.8598,0.5793,-5.3049
-0.013550,0.193542,-0.968262,1.9512,0.6098,-4.9085
-0.011169,0.189209,-0.966553,2.0122,0.6707,-4.4512
-0.008362,0.184937,-0.964661,2.0427,0.7012,-3.9939
-0.004944,0.180603,-0.962646,2.0122,0.7622,-3.4756
-0.001343,0.176758,-0.960693,1.9207,0.7927,-2.9268
0.002441,0.173279,-0.958862,1.7988,0.7927,-2.3171
0.006531,0.170105,-0.957092,1.5854,0.7927,-1.6463
0.010620,0.167542,-0.955627,1.3415,0.7927,-0.9451
0.014648,0.165222,-0.954407,1.0366,0.7927,-0.1829
0.018799,0.163147,-0.953491,0.6707,0.7622,0.6098
0.023010,0.161011,-0.952759,0.2744,0.7317,1.4024
0.026855,0.158997,-0.952271,-0.1524,0.6707,2.2561
0.030579,0.157043,-0.951965,-0.6402,0.6402,3.1402
0.034485,0.154785,-0.951782,-1.1585,0.5793,4.0244
0.038208,0.152466,-0.951843,-1.7073,0.5488,4.9390
0.041870,0.150208,-0.951904,-2.3171,0.4878,5.9146
0.045776,0.147827,-0.952148,-2.9268,0.4268,6.8902
0.049744,0.145752,-0.952393,-3.5671,0.3963,7.8963
0.053406,0.144226,-0.952881,-4.2378,0.3354,8.9939
0.057068,0.143250,-0.953552,-4.9390,0.3049,10.1220
0.060730,0.143066,-0.954529,-5.6098,0.3049,11.2500
0.063904,0.143860,-0.955811,-6.2805,0.3049,12.4085
0.066711,0.145569,-0.957336,-6.9512,0.3354,13.6585
0.069153,0.148499,-0.959473,-7.5915,0.4268,14.8780
0.070801,0.152466,-0.961975,-8.1707,0.5488,16.0976
0.071838,0.157349,-0.965027,-8.7805,0.7012,17.4085
0.072266,0.163086,-0.968506,-9.3293,0.9451,18.6585
0.071960,0.170288,-0.972961,-9.8476,1.2195,19.8780
0.070923,0.177979,-0.977844,-10.3354,1.5244,21.0976
0.069275,0.186340,-0.983215,-10.8232,1.8902,22.3171
0.067017,0.195801,-0.989624,-11.2500,2.2866,23.4451
0.064392,0.205322,-0.996277,-11.6463,2.6829,24.5122
0.061462,0.215149,-1.003296,-12.0732,3.1402,25.5793
0.058350,0.225159,-1.010742,-12.4390,3.5671,26.5244
0.054993,0.235962,-1.018921,-12.8049,3.9634,27.4085
0.051697,0.246155,-1.027039,-13.1707,4.3293,28.2622
0.048401,0.256348,-1.035339,-13.5976,4.6646,29.1159
0.045044,0.266968,-1.044312,-13.9939,4.9085,29.8476
0.041870,0.276855,-1.052979,-14.3902,5.0915,30.5183
0.038696,0.286560,-1.061707,-14.8476,5.1829,31.2195
0.035645,0.296082,-1.070374,-15.3049,5.1829,31.7988
0.032471,0.305725,-1.079346,-15.7927,5.0915,32.3476
0.029541,0.314453,-1.087646,-16.3415,4.9085,32.8963
0.026794,0.322876,-1.095764,-16.9207,4.6646,33.3841
0.024170,0.331360,-1.103882,-17.4695,4.3293,33.8110
0.021851,0.339050,-1.111206,-18.0793,3.9329,34.2073
0.019714,0.346313,-1.118286,-18.7500,3.4451,34.5732
0.017761,0.353394,-1.125244,-19.4207,2.9573,34.8780
0.015991,0.360046,-1.131958,-20.0915,2.3780,35.1829
0.014648,0.365906,-1.137878,-20.7927,1.7683,35.4268
0.013428,0.371277,-1.143494,-21.4634,1.1585,35.6402
0.012451,0.376404,-1.148926,-22.1341,0.5488,35.8232
0.011719,0.380615,-1.153687,-22.7744,-0.0915,35.9756
0.011169,0.384399,-1.158081,-23.3841,-0.7622,36.1280
0.010803,0.387817,-1.162170,-23.9329,-1.4024,36.2195
0.010681,0.390564,-1.165466,-24.4207,-2.0427,36.3110
0.010803,0.393005,-1.168396,-24.8476,-2.6829,36.3415
0.011047,0.395081,-1.170837,-25.1524,-3.2927,36.3415
0.011536,0.396912,-1.172913,-25.4268,-3.8720,36.3110
0.012268,0.398376,-1.174316,-25.6098,-4.4512,36.2500
0.013062,0.399780,-1.175354,-25.6707,-5.0305,36.1585
0.014099,0.401184,-1.175964,-25.6707,-5.5488,36.0366
0.015198,0.402527,-1.176086,-25.5488,-6.0366,35.8841
0.016479,0.403870,-1.176025,-25.3354,-6.5244,35.7012
0.017700,0.405334,-1.175659,-25.0000,-6.9512,35.4878
0.019043,0.406860,-1.175049,-24.5732,-7.3171,35.2744
0.020142,0.408386,-1.174194,-24.0549,-7.6524,35.0000
0.021240,0.409790,-1.173218,-23.3841,-7.9573,34.6951
0.022339,0.410950,-1.171936,-22.6524,-8.2012,34.3598
0.023254,0.411743,-1.170654,-21.8293,-8.3841,34.0244
0.023987,0.412170,-1.169250,-20.8841,-8.5366,33.5976
0.024536,0.412170,-1.167725,-19.8780,-8.5976,33.1707
0.025024,0.411377,-1.165833,-18.8110,-8.6585,32.7134
0.025391,0.409912,-1.163879,-17.6220,-8.6890,32.1951
0.025696,0.407715,-1.161682,-16.4024,-8.6890,31.6463
0.026062,0.404480,-1.158997,-15.2134,-8.6890,31.0976
0.026489,0.400513,-1.156128,-13.9939,-8.6890,30.5488
0.027039,0.395874,-1.152832,-12.7439,-8.7195,29.9695
0.027893,0.390137,-1.148804,-11.5549,-8.7500,29.3902
0.028992,0.383850,-1.144348,-10.3963,-8.8415,28.8720
0.030273,0.377258,-1.139587,-9.2378,-8.9634,28.3232
0.031860,0.370361,-1.134399,-8.2317,-9.1463,27.8354
0.033813,0.362854,-1.128418,-7.2866,-9.3598,27.3780
0.035889,0.355652,-1.122314,-6.4329,-9.6341,26.9512
0.038086,0.348511,-1.115906,-5.6402,-9.9695,26.5854
0.040466,0.341187,-1.108826,-5.0000,-10.3354,26.2805
0.042725,0.334534,-1.101868,-4.4817,-10.7317,26.0061
0.044922,0.328003,-1.094788,-4.0549,-11.2195,25.7927
0.046997,0.321655,-1.087524,-3.7500,-11.6768,25.6402
0.049072,0.315186,-1.079590,-3.5366,-12.1951,25.5183
0.050842,0.309204,-1.071960,-3.4146,-12.6829,25.4268
0.052673,0.303284,-1.064270,-3.3537,-13.2622,25.3354
0.054504,0.297119,-1.055969,-3.3841,-13.7805,25.3049
0.056213,0.291321,-1.047913,-3.4756,-14.3293,25.2744
0.058044,0.285583,-1.039795,-3.6280,-14.9085,25.2744
0.060059,0.279846,-1.031555,-3.8110,-15.4268,25.2744
0.062500,0.273804,-1.022827,-3.9939,-15.9451,25.2744
0.065063,0.268127,-1.014526,-4.1768,-16.4634,25.3049
0.067749,0.262573,-1.006348,-4.3598,-16.9512,25.3659
0.070801,0.256836,-0.997681,-4.5122,-17.3780,25.4268
0.073914,0.251648,-0.989624,-4.6341,-17.7744,25.5183
0.077026,0.246582,-0.981750,-4.7256,-18.1098,25.6402
0.080200,0.241760,-0.974060,-4.7866,-18.3841,25.7622
0.083496,0.237000,-0.966248,-4.8171,-18.5671,25.8841
0.086548,0.232727,-0.959167,-4.7866,-18.6890,26.0366
0.089539,0.228821,-0.952454,-4.7256,-18.7195,26.2195
0.092590,0.224976,-0.945984,-4.6037,-18.6585,26.4024
0.095337,0.221802,-0.940430,-4.4512,-18.5366,26.5854
0.098083,0.218933,-0.935364,-4.2683,-18.3232,26.7988
0.100891,0.216370,-0.930786,-4.0549,-18.0183,27.0122
0.103577,0.214172,-0.926941,-3.7805,-17.6829,27.2256
0.106018,0.212585,-0.924133,-3.4756,-17.2561,27.4390
0.108276,0.211426,-0.922058,-3.1402,-16.7988,27.6829
0.110413,0.210754,-0.920776,-2.8049,-16.2805,27.9268
0.112183,0.210754,-0.920288,-2.4390,-15.7622,28.1402
0.113708,0.211121,-0.920532,-2.0427,-15.1829,28.3841
0.114929,0.212097,-0.921692,-1.6768,-14.6341,28.6280
0.115723,0.213440,-0.923462,-1.2805,-14.0854,28.8720
0.116272,0.215088,-0.925781,-0.8841,-13.5061,29.1159
0.116638,0.217041,-0.928589,-0.5183,-12.9878,29.3293
0.116699,0.219360,-0.932190,-0.1829,-12.5000,29.5427
0.116455,0.221802,-0.936035,0.1220,-12.0427,29.7561
0.116089,0.224304,-0.940247,0.4268,-11.5854,29.9695
0.115540,0.227112,-0.944946,0.7012,-11.2195,30.2134
0.114807,0.229797,-0.949524,0.9146,-10.8537,30.4268
0.113953,0.232422,-0.954285,1.0976,-10.5488,30.6402
0.112976,0.235046,-0.958984,1.2195,-10.3354,30.8537
0.111755,0.237793,-0.963806,1.3415,-10.1524,31.0976
0.110352,0.240417,-0.968079,1.4024,-10.0000,31.3110
0.108887,0.242920,-0.972229,1.4024,-9.8780,31.5244
0.107178,0.245239,-0.976440,1.3415,-9.8476,31.7073
0.105408,0.247253,-0.980164,1.2500,-9.8171,31.9207
0.103516,0.249084,-0.983643,1.0976,-9.8780,32.1037
0.101440,0.250977,-0.986938,0.9146,-9.9695,32.2866
0.099304,0.252747,-0.989868,0.7012,-10.1220,32.4695
0.097168,0.254272,-0.992371,0.4573,-10.3049,32.6829
0.094971,0.255676,-0.994446,0.2134,-10.5488,32.8659
0.092590,0.257141,-0.995972,-0.0305,-10.7927,33.0488
0.090271,0.258545,-0.996643,-0.2439,-11.0671,33.2317
0.087952,0.259888,-0.996765,-0.4878,-11.4024,33.3841
0.085510,0.261169,-0.996033,-0.6707,-11.7073,33.5366
0.083191,0.262329,-0.994568,-0.8537,-12.0427,33.6585
0.080872,0.263428,-0.992493,-1.0366,-12.3780,33.7500
0.078430,0.264526,-0.989868,-1.1585,-12.6524,33.8415
0.075928,0.265564,-0.986572,-1.2805,-12.9573,33.9024
0.073547,0.266541,-0.982849,-1.3720,-13.2012,33.9634
0.071106,0.267395,-0.978821,-1.4634,-13.4146,33.9939
0.068542,0.268188,-0.974304,-1.4939,-13.5671,34.0244
0.065979,0.268860,-0.969849,-1.5549,-13.6890,34.0244
0.063354,0.269470,-0.965332,-1.5854,-13.7500,34.0549
0.060547,0.269897,-0.960815,-1.5854,-13.7805,34.0244
0.057556,0.270081,-0.955933,-1.6159,-13.7500,33.9939
0.054565,0.270020,-0.951416,-1.6463,-13.6890,33.9634
0.051453,0.269653,-0.946960,-1.6463,-13.5976,33.9024
0.048157,0.268982,-0.942444,-1.6463,-13.4756,33.8415
0.044922,0.268005,-0.938293,-1.6463,-13.3232,33.7500
0.041687,0.266724,-0.934265,-1.6463,-13.1707,33.6585
0.038513,0.265137,-0.930359,-1.6159,-13.0183,33.5366
0.035278,0.263123,-0.926453,-1.5549,-12.8659,33.4451
0.032288,0.260925,-0.923035,-1.4634,-12.7134,33.3232
0.029480,0.258606,-0.919678,-1.3720,-12.5610,33.2012
0.026733,0.256042,-0.916382,-1.2805,-12.4390,33.0793
0.024231,0.253662,-0.913513,-1.1585,-12.3476,32.9878
0.021851,0.251282,-0.910828,-1.0366,-12.2256,32.8963
0.019470,0.248901,-0.908142,-0.9146,-12.1341,32.8049
0.017212,0.246704,-0.905701,-0.7927,-12.0427,32.7134
0.015076,0.244873,-0.903564,-0.6707,-11.9512,32.6220
0.012939,0.243164,-0.901611,-0.5488,-11.8598,32.5610
0.010620,0.241577,-0.899902,-0.4573,-11.7683,32.4695
0.008362,0.240295,-0.898621,-0.3963,-11.6768,32.4085
0.006104,0.239136,-0.897644,-0.3049,-11.5549,32.3171
0.003723,0.238159,-0.897034,-0.2439,-11.4634,32.2561
0.001404,0.237488,-0.897034,-0.2134,-11.3415,32.1951
-0.000977,0.237061,-0.897522,-0.1524,-11.2500,32.1037
-0.003357,0.236755,-0.898560,-0.1220,-11.1280,32.0427
-0.005981,0.236694,-0.900330,-0.0915,-11.0366,31.9817
-0.008484,0.236816,-0.902649,-0.0610,-10.9756,31.8902
-0.011169,0.236938,-0.905396,-0.0305,-10.9451,31.7988
-0.014160,0.237122,-0.908691,0.0000,-10.9451,31.7073
-0.017029,0.237183,-0.912109,0.0305,-10.9756,31.6159
-0.020020,0.237183,-0.915710,0.0915,-11.0976,31.5244
-0.023010,0.237122,-0.919250,0.1829,-11.2500,31.4024
-0.026062,0.236816,-0.922913,0.2439,-11.4939,31.2805
-0.028931,0.236328,-0.926025,0.3354,-11.7683,31.1585
-0.031555,0.235657,-0.928894,0.4268,-12.1341,31.0061
-0.034119,0.234802,-0.931335,0.5183,-12.5610,30.8537
-0.036316,0.233948,-0.933167,0.5793,-13.0488,30.7012
-0.038269,0.233032,-0.934509,0.6402,-13.5976,30.5793
-0.040100,0.231995,-0.935425,0.6707,-14.1768,30.4268
-0.041809,0.230957,-0.935852,0.6707,-14.7866,30.3354
-0.043335,0.229919,-0.935486,0.6707,-15.4268,30.2134
-0.044739,0.229004,-0.934692,0.6098,-16.0976,30.1524
-0.046143,0.228088,-0.933411,0.5183,-16.7378,30.0915
-0.047424,0.227356,-0.931763,0.3659,-17.3476,30.0915
-0.048645,0.226685,-0.929932,0.1524,-17.9878,30.0915
-0.049927,0.226196,-0.927612,-0.0610,-18.5671,30.1220
-0.051208,0.226013,-0.924988,-0.2744,-19.1159,30.1829
-0.052429,0.226135,-0.922241,-0.5488,-19.6646,30.2439
-0.053528,0.226379,-0.919434,-0.7622,-20.1220,30.3049
-0.054749,0.226990,-0.916504,-0.9756,-20.5488,30.3659
-0.055969,0.227844,-0.913574,-1.1585,-20.9451,30.4268
-0.057129,0.229004,-0.910583,-1.2805,-21.3110,30.4878
-0.058289,0.230347,-0.907349,-1.3415,-21.6159,30.5183
-0.059448,0.231812,-0.904297,-1.3720,-21.8902,30.5488
-0.060608,0.233276,-0.901306,-1.3720,-22.1341,30.5488
-0.061707,0.234680,-0.898376,-1.3110,-22.3171,30.5183
-0.062683,0.236084,-0.895386,-1.2195,-22.4695,30.4573
-0.063599,0.237427,-0.892578,-1.1280,-22.5915,30.4268
-0.064453,0.238708,-0.889893,-1.0061,-22.6829,30.3354
-0.065186,0.240051,-0.887329,-0.8537,-22.7134,30.2439
-0.065857,0.241211,-0.885071,-0.7012,-22.7744,30.1524
-0.066406,0.242432,-0.883057,-0.5488,-22.7744,30.0610
-0.066895,0.243591,-0.881226,-0.3963,-22.7439,29.9390
-0.067383,0.244690,-0.879700,-0.2744,-22.7134,29.8476
-0.067932,0.245667,-0.878479,-0.1220,-22.6829,29.7256
-0.068420,0.246582,-0.877625,0.0000,-22.6220,29.6341
-0.068909,0.247253,-0.877136,0.1220,-22.5610,29.5122
-0.069397,0.247742,-0.876953,0.2439,-22.4695,29.3902
-0.069946,0.248108,-0.877014,0.3354,-22.3780,29.2683
-0.070496,0.248291,-0.877380,0.4573,-22.2866,29.1768
-0.071045,0.248352,-0.877991,0.5488,-22.2256,29.0549
-0.071533,0.248291,-0.878906,0.6402,-22.1646,28.9634
-0.072205,0.248169,-0.879883,0.7622,-22.1037,28.8415
-0.072937,0.247986,-0.880981,0.8537,-22.0732,28.7500
-0.073730,0.247864,-0.882080,0.9451,-22.0427,28.6585
-0.074585,0.247803,-0.883301,1.0366,-22.0427,28.5671
-0.075500,0.247803,-0.884644,1.0976,-22.0732,28.4756
-0.076477,0.247986,-0.885986,1.1585,-22.1037,28.3841
-0.077454,0.248291,-0.887207,1.2500,-22.1341,28.2622
-0.078430,0.248779,-0.888428,1.3110,-22.1951,28.2012
-0.079529,0.249573,-0.889648,1.3415,-22.2866,28.1098
-0.080627,0.250549,-0.890808,1.4024,-22.3476,28.0183
-0.081787,0.251770,-0.891907,1.4634,-22.4390,27.8963
-0.083069,0.253174,-0.892883,1.5244,-22.5305,27.7744
-0.084290,0.254700,-0.893799,1.5549,-22.6524,27.6524
-0.085632,0.256348,-0.894531,1.6159,-22.7744,27.5000
-0.086914,0.258057,-0.895142,1.6768,-22.8963,27.3476
-0.088318,0.259888,-0.895691,1.7073,-23.0183,27.1646
-0.089600,0.261536,-0.896057,1.7378,-23.1707,26.9512
-0.090820,0.263184,-0.896240,1.7988,-23.3232,26.7378
-0.092041,0.264709,-0.896362,1.7988,-23.4451,26.4939
-0.093079,0.266052,-0.896301,1.8293,-23.5976,26.2500
-0.094116,0.267273,-0.896118,1.8598,-23.7195,25.9756
-0.095093,0.268311,-0.895813,1.8902,-23.8415,25.7317
-0.096130,0.269104,-0.895447,1.8902,-23.9329,25.4573
-0.097046,0.269653,-0.895020,1.8902,-24.0244,25.2134
-0.097961,0.270142,-0.894653,1.8598,-24.1159,24.9085
-0.098999,0.270691,-0.894409,1.8598,-24.1463,24.6646
-0.099976,0.271240,-0.894287,1.8293,-24.1768,24.4207
-0.101013,0.271851,-0.894287,1.7988,-24.2073,24.1463
-0.102173,0.272522,-0.894470,1.7378,-24.2073,23.9024
-0.103455,0.273499,-0.894958,1.6768,-24.2073,23.6585
-0.104675,0.274597,-0.895630,1.6159,-24.1768,23.3841
-0.106018,0.275757,-0.896545,1.5244,-24.1768,23.1098
-0.107483,0.276917,-0.897705,1.4634,-24.1463,22.8354
-0.108765,0.277893,-0.898987,1.3720,-24.1159,22.5610
-0.110046,0.278625,-0.900574,1.3110,-24.0854,22.2866
-0.111328,0.279175,-0.902466,1.2500,-24.0854,22.0122
-0.112549,0.279419,-0.904480,1.2195,-24.0854,21.7378
-0.113586,0.279358,-0.906616,1.2195,-24.0854,21.4329
-0.114563,0.279175,-0.908813,1.2195,-24.0854,21.1585
-0.115723,0.279175,-0.911255,1.2805,-24.1159,20.9146
-0.116943,0.279358,-0.913574,1.3415,-24.1463,20.6402
-0.118347,0.279724,-0.915771,1.4634,-24.1463,20.3659
-0.120056,0.280457,-0.917847,1.5854,-24.1768,20.0610
-0.121826,0.281494,-0.919678,1.7378,-24.2073,19.7561
-0.123596,0.282776,-0.921143,1.9207,-24.2378,19.3902
-0.125366,0.284119,-0.922302,2.1341,-24.2683,19.0244
-0.127197,0.285400,-0.923035,2.3476,-24.2988,18.6280
-0.128662,0.286316,-0.923157,2.5610,-24.3598,18.1707
-0.129883,0.286865,-0.922852,2.8049,-24.3902,17.7134
-0.130737,0.286743,-0.921936,3.0488,-24.4207,17.2561
-0.131104,0.285950,-0.920471,3.2622,-24.4207,16.7988
-0.131226,0.284546,-0.918640,3.4451,-24.4207,16.3110
-0.131165,0.282471,-0.916443,3.5976,-24.3902,15.8841
-0.130798,0.279480,-0.913635,3.7195,-24.3598,15.4878
-0.130127,0.276001,-0.910706,3.8110,-24.2988,15.1220
-0.129333,0.271973,-0.907593,3.8720,-24.1768,14.7866
-0.128418,0.267273,-0.904297,3.8720,-24.0244,14.5122
-0.127441,0.262451,-0.901123,3.8415,-23.8110,14.2683
-0.126465,0.257568,-0.898071,3.8110,-23.5671,14.0854
-0.125610,0.252258,-0.894958,3.7195,-23.2622,13.9329
-0.124817,0.247009,-0.891968,3.6280,-22.9573,13.8415
-0.124084,0.242126,-0.889404,3.4756,-22.5610,13.7805
-0.123413,0.237305,-0.887085,3.2927,-22.1646,13.7500
-0.122620,0.232117,-0.885010,3.1098,-21.7073,13.7500
-0.122009,0.227234,-0.883545,2.8963,-21.2805,13.7500
-0.121338,0.222229,-0.882385,2.6524,-20.7927,13.8110
-0.120544,0.216614,-0.881653,2.4085,-20.3049,13.9024
-0.119629,0.210999,-0.881531,2.1341,-19.8171,14.0244
-0.118652,0.205200,-0.881836,1.8902,-19.3293,14.1768
-0.117798,0.199036,-0.882446,1.6768,-18.8720,14.3598
-0.116943,0.192322,-0.883545,1.4634,-18.4146,14.6037
-0.116272,0.185852,-0.884949,1.3110,-17.9878,14.8476
-0.115662,0.179382,-0.886597,1.1585,-17.5610,15.1524
-0.115112,0.172607,-0.888733,1.0671,-17.1951,15.4878
-0.114685,0.166382,-0.891052,1.0366,-16.8598,15.8232
-0.114319,0.160400,-0.893677,1.0366,-16.5244,16.2195
-0.114014,0.154724,-0.896545,1.1280,-16.2500,16.5854
-0.113586,0.149292,-0.900024,1.2500,-15.9756,16.9817
-0.113159,0.144897,-0.903748,1.4329,-15.7317,17.3476
-0.112793,0.141296,-0.907776,1.7378,-15.4878,17.7744
-0.112610,0.138977,-0.912537,2.1037,-15.3049,18.2012
-0.112732,0.138123,-0.917419,2.5610,-15.0915,18.5976
-0.113159,0.138550,-0.922668,3.1402,-14.9085,18.9634
-0.113953,0.140320,-0.928162,3.7805,-14.7256,19.2988
-0.115601,0.143616,-0.934265,4.5122,-14.5732,19.5732
-0.117798,0.148010,-0.940186,5.3049,-14.4512,19.7866
-0.120544,0.153015,-0.945984,6.1585,-14.3293,19.8780
-0.124023,0.158203,-0.951843,6.9817,-14.2683,19.8780
-0.127808,0.162781,-0.956909,7.8049,-14.2683,19.7866
-0.131897,0.166626,-0.961548,8.6280,-14.2988,19.5732
-0.135986,0.169250,-0.965454,9.3902,-14.3902,19.2683
-0.139771,0.170654,-0.968506,10.0610,-14.5427,18.9024
-0.142883,0.170410,-0.970398,10.7012,-14.7866,18.4756
-0.145386,0.169006,-0.971375,11.1890,-15.0915,18.0488
-0.147156,0.166321,-0.971191,11.6159,-15.4573,17.6220
-0.147888,0.162781,-0.969910,11.9817,-15.8841,17.1951
-0.148010,0.158813,-0.967773,12.2561,-16.3720,16.7683
-0.147339,0.154297,-0.964233,12.4390,-16.9207,16.4329
-0.146240,0.149902,-0.959900,12.5610,-17.4390,16.1280
-0.144775,0.145569,-0.954773,12.6524,-18.0183,15.8537
-0.143127,0.141541,-0.948975,12.6524,-18.5366,15.6707
-0.141174,0.138000,-0.941895,12.6524,-19.0244,15.5183
-0.139160,0.135193,-0.934631,12.5610,-19.4817,15.3963
-0.136963,0.132874,-0.927185,12.4085,-19.8476,15.3354
-0.134460,0.131042,-0.919678,12.2256,-20.0915,15.2744
-0.131714,0.130005,-0.913208,11.9817,-20.2439,15.2439
-0.128723,0.129456,-0.907349,11.6768,-20.3049,15.2744
-0.125610,0.129395,-0.902100,11.3720,-20.2439,15.3049
-0.122498,0.129883,-0.896912,11.0671,-20.0915,15.3659
-0.119751,0.130737,-0.892883,10.7317,-19.8780,15.4573
-0.117249,0.132202,-0.889465,10.3659,-19.5427,15.5793
-0.114807,0.134583,-0.886780,10.0305,-19.1159,15.7317
-0.112610,0.137573,-0.885132,9.6646,-18.5976,15.8841
-0.110474,0.141174,-0.884155,9.2988,-17.9573,16.0366
-0.108154,0.145569,-0.883911,8.9329,-17.2256,16.1585
-0.105347,0.151428,-0.885254,8.5366,-16.4024,16.2805
-0.102356,0.158325,-0.888550,8.1098,-15.3659,16.4024
-0.099243,0.166626,-0.893433,7.7134,-14.2073,16.5244
-0.096252,0.177246,-0.900818,7.3780,-12.9573,16.6159
-0.093689,0.189026,-0.909912,7.1037,-11.5854,16.6463
-0.091736,0.202148,-0.920654,6.8293,-10.0305,16.6768
-0.090637,0.217529,-0.934204,6.6159,-8.4451,16.6159
-0.090332,0.234009,-0.949585,6.4329,-6.7988,16.5244
-0.091125,0.250793,-0.966248,6.2500,-5.0000,16.3415
-0.092651,0.268005,-0.984497,6.0671,-3.2622,16.0671
-0.094910,0.286133,-1.005920,5.8537,-1.5549,15.7317
-0.097473,0.303040,-1.028137,5.6098,0.0915,15.3354
-0.100281,0.319458,-1.051514,5.3049,1.7378,14.8171
-0.103455,0.335754,-1.077454,5.0000,3.2012,14.2683
-0.106628,0.349976,-1.103149,4.6341,4.5122,13.6585
-0.109802,0.363159,-1.129211,4.2378,5.7012,12.9878
-0.112976,0.375061,-1.155457,3.8110,6.5854,12.2866
-0.116028,0.385864,-1.182861,3.3841,7.2561,11.5854
-0.118652,0.394287,-1.208374,2.9268,7.7134,10.8537
-0.120850,0.401123,-1.233276,2.4390,7.8963,10.0915
-0.122681,0.406555,-1.258301,1.9207,7.7439,9.3598
-0.123840,0.410034,-1.280640,1.3720,7.3780,8.6280
-0.124695,0.412354,-1.301636,0.7317,6.6768,7.8963
-0.125122,0.413635,-1.321228,0.0915,5.7012,7.2561
-0.125305,0.414185,-1.339661,-0.5793,4.5427,6.6463
-0.125183,0.414001,-1.354980,-1.3110,3.1707,6.0671
-0.124939,0.413574,-1.368408,-2.1341,1.5244,5.4878
-0.124512,0.412903,-1.379822,-2.9573,-0.2134,5.0305
-0.124023,0.412109,-1.388062,-3.8415,-2.0427,4.5732
-0.123352,0.411194,-1.394226,-4.8476,-4.1159,4.1463
-0.122620,0.410217,-1.398193,-5.8537,-6.1280,3.7500
-0.121582,0.408936,-1.399719,-6.8902,-8.2012,3.3841
-0.120483,0.407410,-1.398682,-8.0793,-10.3659,3.0488
-0.119141,0.405579,-1.395691,-9.2988,-12.5305,2.7134
-0.117554,0.403198,-1.390137,-10.4878,-14.5427,2.4085
-0.115784,0.400635,-1.382751,-11.7378,-16.5244,2.1341
-0.113892,0.397949,-1.373840,-13.0793,-18.5366,1.8598
-0.111694,0.395081,-1.362976,-14.4207,-20.3963,1.6159
-0.109436,0.392273,-1.350952,-15.7927,-22.1646,1.3720
-0.107239,0.389771,-1.338501,-17.1951,-23.9634,1.1280
-0.105164,0.387390,-1.325256,-18.5366,-25.5488,0.9146
-0.103088,0.385254,-1.310547,-19.8476,-27.0732,0.6707
-0.101318,0.383606,-1.295898,-21.0671,-28.5366,0.4268
-0.099731,0.382324,-1.280823,-22.2561,-29.9390,0.1524
-0.098206,0.381104,-1.264648,-23.2622,-31.1890,-0.1829
-0.097107,0.380127,-1.248962,-24.1768,-32.3171,-0.5488
-0.096252,0.379089,-1.232971,-25.0000,-33.4451,-0.9756
-0.095520,0.378052,-1.216614,-25.6402,-34.3902,-1.4634
-0.094788,0.376892,-1.198975,-26.1890,-35.2744,-2.0122
-0.094116,0.375793,-1.182068,-26.6463,-36.0976,-2.5915
-0.093323,0.374695,-1.165344,-27.0427,-36.8598,-3.3232
-0.092285,0.373535,-1.147888,-27.3171,-37.5305,-4.0854
-0.091003,0.372375,-1.131409,-27.5305,-38.1402,-4.8780
-0.089417,0.371155,-1.115234,-27.6524,-38.7195,-5.7622
-0.087524,0.369751,-1.099243,-27.7134,-39.2073,-6.6463
-0.085449,0.367798,-1.082703,-27.7134,-39.6646,-7.5610
-0.083435,0.365540,-1.067383,-27.6524,-40.1220,-8.4756
-0.081482,0.362793,-1.052307,-27.5610,-40.5183,-9.5122
-0.079590,0.359009,-1.036621,-27.3780,-40.8841,-10.4573
-0.078064,0.354553,-1.021851,-27.1646,-41.1890,-11.4634
-0.076721,0.349487,-1.007080,-26.8902,-41.4939,-12.5000
-0.075684,0.343811,-0.992249,-26.5854,-41.7073,-13.4756
-0.074463,0.337158,-0.976685,-26.2805,-41.8902,-14.4512
-0.073242,0.330322,-0.962219,-25.8841,-42.0122,-15.4878
-0.071716,0.323120,-0.947937,-25.4573,-42.0732,-16.4939
-0.069580,0.314880,-0.933350,-24.9695,-42.0732,-17.4390
-0.067078,0.306702,-0.919861,-24.4817,-42.0122,-18.3841
-0.064270,0.298218,-0.906921,-23.8720,-41.8598,-19.2988
-0.060913,0.289001,-0.893921,-23.2317,-41.6159,-20.1524
-0.057373,0.279785,-0.881653,-22.5305,-41.3110,-20.9756
-0.053894,0.271057,-0.870850,-21.7073,-40.9146,-21.7683
-0.050476,0.262451,-0.860779,-20.8537,-40.4268,-22.4695
-0.047180,0.253845,-0.851257,-19.9695,-39.8780,-23.1402
-0.044434,0.246094,-0.843262,-19.0549,-39.2683,-23.7500
-0.041992,0.238831,-0.835999,-18.0183,-38.5671,-24.3902
-0.039673,0.231812,-0.829285,-17.0122,-37.8354,-24.9695
-0.037781,0.225708,-0.823914,-15.9451,-37.0732,-25.5183
-0.035889,0.220154,-0.819153,-14.8171,-36.2500,-26.0976
-0.033997,0.215149,-0.814941,-13.7195,-35.4268,-26.6159
-0.031799,0.210510,-0.811218,-12.5915,-34.6037,-27.1037
-0.029419,0.206726,-0.808167,-11.4939,-33.8110,-27.5915
-0.026733,0.203552,-0.805359,-10.3049,-32.9573,-28.0793
-0.023376,0.200806,-0.802795,-9.2073,-32.1951,-28.5366
-0.019897,0.198853,-0.800781,-8.1098,-31.4329,-28.9634
-0.016113,0.197449,-0.799072,-7.0122,-30.6098,-29.4207
-0.012207,0.196411,-0.797729,-6.0061,-29.8476,-29.7866
-0.007935,0.195862,-0.796753,-5.0610,-29.0549,-30.1524
-0.003906,0.195618,-0.796326,-4.1768,-28.2622,-30.4878
0.000061,0.195374,-0.796448,-3.2927,-27.3780,-30.8232
0.004089,0.195129,-0.797363,-2.5610,-26.4939,-31.0976
0.007751,0.194763,-0.799072,-1.9207,-25.5793,-31.3110
0.011292,0.194153,-0.801453,-1.3110,-24.5427,-31.4939
0.014893,0.193237,-0.805115,-0.8232,-23.5061,-31.5854
0.018433,0.192139,-0.809570,-0.3963,-22.4390,-31.6159
0.021667,0.190918,-0.814941,-0.0305,-21.2500,-31.5854
0.024963,0.189636,-0.821167,0.3049,-20.0610,-31.5244
0.028381,0.188599,-0.828857,0.5793,-18.9024,-31.3415
0.031555,0.187866,-0.837280,0.8232,-17.7744,-31.1280
0.034607,0.187622,-0.846558,1.0671,-16.5549,-30.8232
0.037659,0.188049,-0.857361,1.3110,-15.4268,-30.4878
0.040344,0.189270,-0.868530,1.5549,-14.3598,-30.1220
0.042908,0.191223,-0.880310,1.8293,-13.2317,-29.6341
0.045166,0.193848,-0.892761,2.1037,-12.2256,-29.1768
0.047241,0.197693,-0.906616,2.4085,-11.2500,-28.6585
0.048828,0.202271,-0.920410,2.7439,-10.3354,-28.1098
0.050110,0.207581,-0.934692,3.1402,-9.4512,-27.5000
0.051208,0.213989,-0.950256,3.5366,-8.6280,-26.8902
0.051880,0.220825,-0.965515,3.9329,-7.8963,-26.3110
0.052307,0.228027,-0.981079,4.3902,-7.1646,-25.6402
0.052429,0.235535,-0.996887,4.8171,-6.5549,-25.0305
0.052307,0.243652,-1.013794,5.2439,-5.9756,-24.4207
0.051880,0.251404,-1.029846,5.7012,-5.4573,-23.8110
0.051270,0.259094,-1.045776,6.1585,-5.0000,-23.1402
0.050293,0.267151,-1.062317,6.6159,-4.6341,-22.5305
0.049133,0.274536,-1.077698,7.0427,-4.3293,-21.9512
0.047791,0.281860,-1.092529,7.5000,-4.1159,-21.3110
0.046326,0.289062,-1.106934,7.9268,-4.0244,-20.7317
0.044617,0.296509,-1.121216,8.3232,-3.9939,-20.1524
0.042847,0.303589,-1.133911,8.7195,-4.0549,-19.5427
0.040955,0.310608,-1.145752,9.0549,-4.2378,-18.9634
0.038940,0.318176,-1.157227,9.3598,-4.5122,-18.4451
0.036987,0.325439,-1.167053,9.6037,-4.8476,-17.9573
0.035034,0.332764,-1.175964,9.7866,-5.3354,-17.4390
0.032959,0.340515,-1.184143,9.8780,-5.9146,-16.9817
0.030945,0.348389,-1.191345,9.9085,-6.5549,-16.5549
0.028931,0.355713,-1.197021,9.8476,-7.3171,-16.1280
0.026978,0.362915,-1.201721,9.6951,-8.1402,-15.7622
0.024841,0.370178,-1.205383,9.4512,-8.9939,-15.3963
0.022766,0.376648,-1.207581,9.1463,-9.9085,-15.0305
0.020630,0.382507,-1.208862,8.7195,-10.9146,-14.6951
0.018311,0.387939,-1.208984,8.2012,-11.9207,-14.3902
0.016113,0.392212,-1.207886,7.6524,-12.9573,-14.1159
0.013794,0.395691,-1.205811,6.9512,-14.0854,-13.8110
0.011536,0.398376,-1.202820,6.2500,-15.1829,-13.5366
0.009277,0.400208,-1.198425,5.4878,-16.2805,-13.2927
0.007202,0.401001,-1.193237,4.6646,-17.4085,-13.0793
0.005310,0.401184,-1.187256,3.7805,-18.6280,-12.8659
0.003479,0.400513,-1.179749,2.9268,-19.7866,-12.6829
0.001892,0.399170,-1.171631,2.0427,-20.9451,-12.5305
0.000427,0.397461,-1.162598,1.1585,-22.1646,-12.3780
-0.000916,0.395325,-1.152710,0.3049,-23.3232,-12.2866
-0.002136,0.392822,-1.141296,-0.5183,-24.4817,-12.1951
-0.003174,0.390198,-1.129517,-1.3110,-25.6098,-12.1037
-0.004089,0.387451,-1.117065,-2.1037,-26.7378,-12.0427
-0.005005,0.384460,-1.103210,-2.8049,-27.7744,-12.0122
-0.005798,0.381592,-1.089478,-3.5061,-28.7500,-11.9817
-0.006531,0.378723,-1.075317,-4.1768,-29.7256,-11.9512
-0.007202,0.375793,-1.060913,-4.7561,-30.5488,-11.9512
-0.007874,0.372620,-1.045471,-5.3354,-31.2805,-11.9512
-0.008545,0.369446,-1.030701,-5.8841,-31.9817,-11.9512
-0.009338,0.366150,-1.015869,-6.4024,-32.5610,-11.9817
-0.010132,0.362244,-1.000305,-6.8598,-33.0183,-12.0122
-0.010925,0.358215,-0.985596,-7.2866,-33.4146,-12.0732
-0.011719,0.354004,-0.971008,-7.6829,-33.6890,-12.1341
-0.012573,0.349121,-0.955811,-8.0183,-33.8720,-12.1951
-0.013428,0.344055,-0.940796,-8.3232,-33.9634,-12.2561
-0.014221,0.339050,-0.926880,-8.6280,-33.9634,-12.3171
-0.014954,0.333984,-0.913391,-8.8415,-33.9024,-12.4085
-0.015564,0.328552,-0.899780,-9.0549,-33.7500,-12.4695
-0.016235,0.323425,-0.887451,-9.2378,-33.5366,-12.5610
-0.016907,0.318420,-0.875549,-9.3902,-33.2622,-12.6524
-0.017761,0.313354,-0.863708,-9.5122,-32.9268,-12.7439
-0.018738,0.308960,-0.853210,-9.6037,-32.5610,-12.8049
-0.019775,0.304810,-0.843384,-9.6341,-32.1037,-12.8963
-0.020935,0.300842,-0.834106,-9.6341,-31.6463,-12.9878
-0.022522,0.297119,-0.825012,-9.5732,-31.1280,-13.0488
-0.024231,0.293945,-0.817017,-9.4817,-30.6098,-13.1098
-0.026062,0.291016,-0.809570,-9.2988,-30.0000,-13.1707
-0.028137,0.288147,-0.802429,-9.0854,-29.4207,-13.2622
-0.030273,0.285461,-0.796204,-8.8415,-28.8110,-13.3232
-0.032410,0.282776,-0.790527,-8.5061,-28.1707,-13.4146
-0.034546,0.280090,-0.785278,-8.1402,-27.5610,-13.5061
-0.036743,0.277161,-0.780334,-7.7439,-26.9207,-13.6280
-0.038757,0.274353,-0.776184,-7.3171,-26.2805,-13.7195
-0.040710,0.271606,-0.772461,-6.8598,-25.6098,-13.8110
-0.042725,0.268921,-0.769104,-6.4024,-25.0000,-13.9024
-0.044495,0.266602,-0.766357,-5.9451,-24.3598,-13.9939
-0.046265,0.264587,-0.764160,-5.4573,-23.6890,-14.0549
-0.048096,0.262878,-0.762390,-5.0000,-23.0488,-14.1159
-0.050049,0.261536,-0.761169,-4.5732,-22.4390,-14.1768
-0.052002,0.260681,-0.760681,-4.1768,-21.7683,-14.2073
-0.054077,0.260193,-0.760559,-3.7805,-21.1280,-14.2683
-0.056396,0.260010,-0.761108,-3.4451,-20.5183,-14.2988
-0.058716,0.260071,-0.762268,-3.1098,-19.9085,-14.3293
-0.061157,0.260315,-0.763855,-2.8049,-19.2683,-14.3598
-0.063843,0.260681,-0.766113,-2.5305,-18.6890,-14.4207
-0.066528,0.261230,-0.768738,-2.2561,-18.1098,-14.4512
-0.069153,0.261841,-0.771606,-1.9817,-17.5305,-14.5122
-0.071716,0.262512,-0.774780,-1.7378,-17.0122,-14.5427
-0.074524,0.263306,-0.778259,-1.4939,-16.4939,-14.6037
-0.077148,0.264099,-0.781616,-1.2500,-16.0366,-14.6646
-0.079773,0.264954,-0.784973,-1.0061,-15.5488,-14.7256
-0.082581,0.265808,-0.788391,-0.7622,-15.1524,-14.7866
-0.085205,0.266724,-0.791504,-0.5488,-14.7561,-14.8476
-0.087891,0.267761,-0.794373,-0.3354,-14.3902,-14.9390
-0.090576,0.268860,-0.797058,-0.1220,-14.0549,-15.0000
-0.093445,0.270020,-0.799561,0.0915,-13.7500,-15.0915
-0.096008,0.271118,-0.801575,0.2744,-13.4451,-15.1829
-0.098511,0.272217,-0.803467,0.4878,-13.1402,-15.2744
-0.101074,0.273315,-0.805176,0.6402,-12.8354,-15.3659
-0.103394,0.274475,-0.806641,0.8232,-12.5610,-15.4268
-0.105591,0.275696,-0.807922,0.9756,-12.2561,-15.4878
-0.107849,0.276794,-0.809204,1.0976,-11.9512,-15.5183
-0.110046,0.278015,-0.810608,1.1890,-11.6463,-15.5183
-0.112061,0.279175,-0.811890,1.2805,-11.3415,-15.5183
-0.114197,0.280396,-0.813293,1.3720,-10.9756,-15.4878
-0.116516,0.281616,-0.814880,1.4329,-10.6707,-15.4573
-0.118774,0.282776,-0.816467,1.4939,-10.3354,-15.3963
-0.121155,0.283997,-0.818176,1.5854,-9.9695,-15.3659
-0.123657,0.285217,-0.820068,1.6768,-9.6037,-15.3354
-0.126221,0.286316,-0.822021,1.7683,-9.2378,-15.3049
-0.128723,0.287354,-0.823975,1.8902,-8.8415,-15.2744
-0.131226,0.288330,-0.825989,2.0427,-8.4451,-15.2744
-0.133789,0.289368,-0.828186,2.1951,-8.0488,-15.2744
-0.136108,0.290405,-0.830322,2.3780,-7.6220,-15.2744
-0.138306,0.291565,-0.832520,2.6220,-7.1951,-15.3049
-0.140625,0.292847,-0.834900,2.8659,-6.7988,-15.3354
-0.142700,0.294189,-0.837219,3.1098,-6.4024,-15.3659
-0.144714,0.295654,-0.839600,3.3841,-6.0061,-15.4268
-0.146729,0.297241,-0.841980,3.6585,-5.6402,-15.5183
-0.148865,0.298950,-0.844482,3.9329,-5.2744,-15.5793
-0.150879,0.300720,-0.846863,4.2073,-4.9390,-15.6707
-0.152954,0.302490,-0.849304,4.4817,-4.5732,-15.7317
-0.155212,0.304321,-0.851807,4.7256,-4.2988,-15.8232
-0.157349,0.305969,-0.854187,4.9390,-3.9939,-15.9146
-0.159424,0.307495,-0.856506,5.1524,-3.7500,-16.0061
-0.161499,0.308960,-0.858826,5.3049,-3.5061,-16.0976
-0.163635,0.310425,-0.861145,5.4573,-3.2927,-16.1890
-0.165649,0.311768,-0.863342,5.5793,-3.1098,-16.2805
-0.167542,0.313049,-0.865479,5.6707,-2.9268,-16.3720
-0.169556,0.314453,-0.867798,5.7317,-2.7744,-16.4939
-0.171204,0.315857,-0.869873,5.7622,-2.6524,-16.5854
-0.172913,0.317383,-0.872009,5.7622,-2.5610,-16.7073
-0.174622,0.318909,-0.874084,5.7317,-2.4695,-16.8598
-0.176453,0.320679,-0.876343,5.7012,-2.3780,-16.9817
-0.178223,0.322571,-0.878479,5.6402,-2.3171,-17.1646
-0.179993,0.324524,-0.880554,5.5793,-2.2256,-17.3171
-0.181946,0.326599,-0.882690,5.4878,-2.1951,-17.5000
-0.183960,0.328613,-0.884644,5.4268,-2.1341,-17.7134
-0.186096,0.330444,-0.886536,5.3659,-2.1037,-17.9268
-0.188293,0.332275,-0.888489,5.3049,-2.0732,-18.1707
-0.190491,0.333923,-0.890320,5.2439,-2.0122,-18.4146
-0.192566,0.335205,-0.891907,5.2134,-1.9817,-18.7195
-0.194641,0.336304,-0.893433,5.2134,-1.9512,-18.9939
-0.196655,0.337036,-0.894897,5.2134,-1.9207,-19.2988
-0.198486,0.337524,-0.896240,5.2439,-1.8902,-19.6037
-0.200073,0.337769,-0.897461,5.2744,-1.8902,-19.9390
-0.201660,0.337891,-0.898560,5.3354,-1.8598,-20.2744
-0.203064,0.337830,-0.899353,5.3963,-1.8293,-20.5793
-0.204407,0.337646,-0.900024,5.4878,-1.7988,-20.9451
-0.205811,0.337463,-0.900513,5.6098,-1.7988,-21.2500
-0.207214,0.337097,-0.900940,5.7012,-1.7683,-21.5854
-0.208435,0.336670,-0.901184,5.8232,-1.7378,-21.9207
-0.209656,0.336182,-0.901245,5.9451,-1.7378,-22.2561
-0.210876,0.335632,-0.901245,6.0671,-1.7073,-22.5610
-0.212036,0.335083,-0.901123,6.1890,-1.6768,-22.8963
-0.213196,0.334473,-0.900940,6.3110,-1.6463,-23.2317
-0.214294,0.333801,-0.900757,6.4329,-1.5854,-23.5366
-0.215332,0.333008,-0.900452,6.5244,-1.5549,-23.8415
-0.216187,0.332153,-0.900146,6.6463,-1.4939,-24.1463
-0.217041,0.331299,-0.899841,6.7378,-1.4329,-24.4512
-0.217896,0.330200,-0.899536,6.8293,-1.3720,-24.7256
-0.218567,0.329102,-0.899292,6.8902,-1.2805,-25.0000
-0.219116,0.327881,-0.899109,6.9817,-1.1890,-25.2744
-0.219666,0.326599,-0.898987,7.0732,-1.0976,-25.5488
-0.220215,0.325256,-0.898926,7.1341,-0.9756,-25.7927
-0.220703,0.323853,-0.899048,7.2561,-0.8841,-26.0366
-0.221130,0.322510,-0.899292,7.3476,-0.7622,-26.2805
-0.221436,0.321045,-0.899719,7.4390,-0.6707,-26.5244
-0.221680,0.319763,-0.900269,7.5610,-0.5793,-26.7378
-0.222046,0.318481,-0.901001,7.6829,-0.4573,-26.9512
-0.222412,0.317139,-0.902039,7.7744,-0.3963,-27.1646
-0.222717,0.315857,-0.903259,7.8963,-0.3049,-27.3780
-0.223022,0.314697,-0.904663,7.9878,-0.2439,-27.5915
-0.223328,0.313660,-0.906128,8.0793,-0.1829,-27.7744
-0.223694,0.312561,-0.907837,8.1707,-0.1220,-27.9573
-0.224182,0.311646,-0.909546,8.2622,-0.0915,-28.1402
-0.224670,0.310791,-0.911194,8.3841,-0.0915,-28.3232
-0.225159,0.309814,-0.912903,8.4756,-0.0915,-28.5061
-0.225586,0.309021,-0.914490,8.5671,-0.0915,-28.6890
-0.225891,0.308105,-0.916016,8.6585,-0.1220,-28.9024
-0.226074,0.307129,-0.917419,8.7500,-0.1524,-29.0854
-0.226074,0.305969,-0.918823,8.8415,-0.2134,-29.2683
-0.225952,0.304810,-0.920044,8.9329,-0.3049,-29.4817
-0.225647,0.303467,-0.921143,8.9939,-0.3659,-29.6646
-0.225098,0.301941,-0.922119,9.0549,-0.4573,-29.8476
-0.224365,0.300232,-0.922974,9.0854,-0.5488,-30.0000
-0.223511,0.298401,-0.923767,9.1159,-0.6402,-30.1524
-0.222534,0.296448,-0.924500,9.1159,-0.7012,-30.2744
-0.221375,0.294189,-0.925232,9.1159,-0.7622,-30.3659
-0.220215,0.291931,-0.926025,9.1159,-0.8232,-30.4573
-0.218872,0.289673,-0.926880,9.0854,-0.8537,-30.5183
-0.217407,0.287415,-0.928101,9.0549,-0.8841,-30.5488
-0.216003,0.285339,-0.929504,8.9939,-0.9146,-30.5793
-0.214661,0.283447,-0.931152,8.9634,-0.9146,-30.5793
-0.213318,0.281799,-0.933105,8.9329,-0.8841,-30.5488
-0.211975,0.280396,-0.935608,8.9024,-0.8841,-30.5183
-0.210876,0.279480,-0.938232,8.8720,-0.8537,-30.4878
-0.209900,0.278870,-0.941162,8.8415,-0.8232,-30.4573
-0.209045,0.278564,-0.944580,8.8415,-0.7927,-30.4268
-0.208435,0.278503,-0.947998,8.8415,-0.7927,-30.3963
-0.207825,0.278503,-0.951660,8.8415,-0.7622,-30.3659
-0.207214,0.278564,-0.955566,8.8720,-0.7927,-30.3659
-0.206604,0.278625,-0.959534,8.8720,-0.8232,-30.3659
-0.205994,0.278625,-0.963318,8.9024,-0.8841,-30.3963
-0.205261,0.278564,-0.967041,8.9024,-0.9451,-30.3963
-0.204407,0.278198,-0.970764,8.9329,-1.0671,-30.3963
-0.203369,0.277649,-0.974121,8.9329,-1.1890,-30.4268
-0.202087,0.276855,-0.977295,8.9329,-1.3415,-30.4268
-0.200562,0.275818,-0.980286,8.9024,-1.4939,-30.3963
-0.198914,0.274719,-0.982727,8.8415,-1.6768,-30.3963
-0.197021,0.273560,-0.984863,8.7805,-1.8598,-30.3354
-0.195007,0.272400,-0.986511,8.6585,-2.0732,-30.3049
-0.192749,0.271362,-0.987793,8.5671,-2.2561,-30.2134
-0.190430,0.270386,-0.988647,8.4146,-2.4695,-30.1524
-0.187927,0.269653,-0.989197,8.2622,-2.6829,-30.0305
-0.185181,0.269043,-0.989380,8.0488,-2.8659,-29.9390
-0.182556,0.268738,-0.989136,7.8354,-3.0488,-29.7866
-0.179810,0.268677,-0.988708,7.5915,-3.2012,-29.6646
-0.177124,0.268738,-0.988159,7.3171,-3.3232,-29.4817
-0.174377,0.269043,-0.987549,7.0122,-3.4146,-29.2988
-0.171692,0.269531,-0.986938,6.6768,-3.4756,-29.1159
-0.169067,0.270142,-0.986267,6.3110,-3.4756,-28.9024
-0.166382,0.270813,-0.985779,5.9451,-3.4756,-28.6585
-0.163879,0.271545,-0.985474,5.5183,-3.4146,-28.4146
-0.161499,0.272461,-0.985413,5.0915,-3.2927,-28.1402
-0.159180,0.273438,-0.985596,4.6646,-3.1707,-27.8659
-0.156799,0.274658,-0.986328,4.2378,-2.9878,-27.5610
-0.154663,0.275940,-0.987366,3.8415,-2.7744,-27.2561
-0.152710,0.277283,-0.988831,3.4451,-2.5305,-26.9512
-0.150818,0.278992,-0.990662,3.1098,-2.2866,-26.6463
-0.149353,0.280945,-0.992676,2.8049,-2.0122,-26.3720
-0.148132,0.283081,-0.994995,2.5305,-1.7073,-26.0976
-0.147034,0.285522,-0.997620,2.3476,-1.3720,-25.8537
-0.146118,0.288086,-1.000366,2.1951,-1.0671,-25.6402
-0.145325,0.290588,-1.003113,2.1037,-0.7317,-25.4573
-0.144531,0.293091,-1.005798,2.0427,-0.4268,-25.3049
-0.143738,0.295715,-1.008606,2.0122,-0.1220,-25.2134
-0.143005,0.298096,-1.011230,2.0427,0.1524,-25.1220
-0.142334,0.300354,-1.013733,2.1037,0.4573,-25.0610
-0.141541,0.302368,-1.016235,2.1646,0.7317,-25.0000
-0.140808,0.304016,-1.018433,2.2866,1.0061,-25.0000
-0.139954,0.305359,-1.020447,2.3780,1.2805,-25.0000
-0.139099,0.306396,-1.022339,2.5000,1.5549,-25.0000
-0.138184,0.307007,-1.024231,2.6220,1.7988,-25.0000
-0.137390,0.307129,-1.025757,2.7134,2.0732,-25.0000
-0.136414,0.306885,-1.027161,2.8049,2.3171,-25.0305
-0.135132,0.306091,-1.028503,2.8963,2.5610,-25.0305
-0.133667,0.304993,-1.029602,2.9268,2.8049,-25.0305
-0.131836,0.303589,-1.030579,2.9878,3.0488,-25.0305
-0.129700,0.301941,-1.031311,2.9878,3.2622,-25.0305
-0.127014,0.299805,-1.031921,2.9573,3.4756,-25.0000
-0.123901,0.297485,-1.032227,2.9268,3.6585,-24.9390
-0.120300,0.294861,-1.032349,2.8354,3.8415,-24.8780
-0.115906,0.291809,-1.032227,2.7439,4.0244,-24.7561
-0.111267,0.288757,-1.031860,2.6220,4.2073,-24.5732
-0.106323,0.285706,-1.031372,2.4695,4.3902,-24.3293
-0.100891,0.282776,-1.030701,2.2866,4.6037,-24.0549
-0.095337,0.280090,-1.029907,2.1341,4.8476,-23.6890
-0.090027,0.278076,-1.029053,1.9512,5.1524,-23.2622
-0.084839,0.276672,-1.028259,1.7378,5.4878,-22.8049
-0.079468,0.276123,-1.027588,1.5854,5.8537,-22.2866
-0.074524,0.276489,-1.027161,1.4024,6.2805,-21.7378
-0.069763,0.277588,-1.026978,1.2195,6.7988,-21.1585
-0.064941,0.279541,-1.027222,1.0366,7.3780,-20.5488
-0.060669,0.282043,-1.027893,0.8841,7.9878,-19.9390
-0.056641,0.285034,-1.029053,0.7012,8.7195,-19.2683
-0.052917,0.288452,-1.030823,0.4878,9.4817,-18.6280
-0.049377,0.292542,-1.033569,0.3049,10.3049,-17.9878
-0.046448,0.296753,-1.036987,0.0915,11.1585,-17.3171
-0.043884,0.301392,-1.041138,-0.1829,12.1037,-16.6159
-0.041748,0.306763,-1.046387,-0.4573,13.0488,-15.9451
-0.040344,0.312378,-1.052307,-0.7622,13.9634,-15.2439
-0.039368,0.318359,-1.058960,-1.0976,14.9390,-14.5427
-0.038879,0.324646,-1.066162,-1.4634,15.8232,-13.9024
-0.039001,0.331848,-1.074341,-1.8902,16.6463,-13.2622
-0.039795,0.339111,-1.082581,-2.3171,17.4085,-12.6524
-0.040955,0.346741,-1.091003,-2.8049,18.1098,-12.0732
-0.042725,0.355042,-1.099915,-3.3232,18.6585,-11.5854
-0.044800,0.363159,-1.108276,-3.8110,19.0854,-11.1585
-0.047058,0.371399,-1.116333,-4.3902,19.3598,-10.7622
-0.049561,0.379639,-1.123901,-4.9085,19.4512,-10.4573
-0.052246,0.388245,-1.130981,-5.4573,19.4512,-10.2439
-0.054871,0.396179,-1.136719,-6.0061,19.2378,-10.0915
-0.057434,0.403870,-1.141602,-6.5854,18.9024,-10.0000
-0.059937,0.411682,-1.145386,-7.1341,18.4756,-10.0000
-0.062073,0.418762,-1.147644,-7.6524,17.8963,-10.0305
-0.063965,0.425598,-1.148804,-8.2317,17.2256,-10.1524
-0.065491,0.432678,-1.148743,-8.7500,16.5244,-10.3354
-0.066711,0.439758,-1.147644,-9.2683,15.7927,-10.5793
-0.067505,0.446411,-1.145569,-9.7866,15.0305,-10.9146
-0.067871,0.453186,-1.142761,-10.2744,14.3293,-11.2805
-0.067932,0.460693,-1.139160,-10.7012,13.6585,-11.6768
-0.067688,0.468018,-1.135193,-11.0976,13.0793,-12.1646
-0.067261,0.475586,-1.131042,-11.4329,12.5610,-12.7439
-0.066711,0.483643,-1.126526,-11.6768,12.1951,-13.3841
-0.066101,0.491211,-1.122253,-11.8293,11.9512,-14.0854
-0.065430,0.498535,-1.118164,-11.8902,11.8293,-14.9390
-0.064758,0.505493,-1.114319,-11.7988,11.8293,-15.8232
-0.064026,0.512024,-1.110535,-11.6159,11.9817,-16.7683
-0.063293,0.517273,-1.107361,-11.3110,12.1951,-17.8049
-0.062439,0.521667,-1.104553,-10.7927,12.5610,-18.9939
-0.061279,0.525024,-1.102112,-10.1829,13.0183,-20.1829
-0.059937,0.526855,-1.100220,-9.3902,13.5366,-21.4634
-0.058289,0.527649,-1.098572,-8.4146,14.1463,-22.8963
-0.056274,0.527344,-1.097290,-7.2866,14.7561,-24.3293
-0.053711,0.525452,-1.096130,-6.0366,15.3963,-25.7622
-0.050903,0.522278,-1.095337,-4.6341,16.0366,-27.2561
-0.047791,0.518005,-1.094604,-3.0183,16.6768,-28.8720
-0.044189,0.512146,-1.093872,-1.3720,17.2866,-30.3963
-0.040466,0.505310,-1.093140,0.3659,17.8659,-31.9512
-0.036621,0.497559,-1.092407,2.2866,18.4451,-33.5671
-0.032532,0.488953,-1.091614,4.1768,18.9024,-35.0915
-0.028015,0.478943,-1.090698,6.0366,19.3293,-36.5854
-0.023560,0.468506,-1.089844,8.0183,19.7256,-38.1098
-0.018921,0.457581,-1.088867,9.9390,20.0305,-39.6037
-0.013855,0.445435,-1.087830,11.7073,20.2439,-40.9451
-0.008850,0.433411,-1.086792,13.4451,20.3963,-42.2256
-0.003784,0.420959,-1.085693,15.1524,20.4573,-43.4756
0.001709,0.407349,-1.084412,16.6463,20.4268,-44.6037
0.007202,0.393372,-1.082947,18.0793,20.3354,-45.6402
0.012390,0.379761,-1.081360,19.4817,20.1220,-46.6463
0.017639,0.365967,-1.079407,20.6707,19.8476,-47.5305
0.023071,0.351074,-1.076904,21.7988,19.4817,-48.2927
0.028381,0.336670,-1.074097,22.8659,19.0244,-49.0244
0.033630,0.322144,-1.070679,23.8415,18.4756,-49.6646
0.039429,0.306641,-1.066467,24.6951,17.8354,-50.2134
0.045105,0.291931,-1.061707,25.4573,17.1341,-50.6707
0.050964,0.277161,-1.056396,26.1585,16.3415,-51.0976
0.057068,0.262451,-1.050537,26.7683,15.4878,-51.4024
0.063843,0.247009,-1.043579,27.3171,14.6341,-51.6159
0.070496,0.232544,-1.036255,27.7744,13.7195,-51.7988
0.077332,0.218262,-1.028503,28.2012,12.7439,-51.8902
0.084778,0.203552,-1.019775,28.5366,11.8293,-51.8598
0.091858,0.190002,-1.011047,28.8110,10.9146,-51.7988
0.098999,0.176819,-1.002014,29.0244,10.0305,-51.6159
0.106140,0.164124,-0.992859,29.1463,9.2073,-51.3415
0.113525,0.151367,-0.983276,29.2073,8.4451,-51.0061
0.120422,0.139954,-0.974243,29.2073,7.7439,-50.5793
0.127197,0.129089,-0.965454,29.1159,7.1037,-50.0305
0.133972,0.118225,-0.956604,28.9634,6.5854,-49.4512
0.140076,0.108643,-0.948792,28.7500,6.1585,-48.7805
0.145996,0.099487,-0.941589,28.4451,5.7622,-48.0183
0.151611,0.090881,-0.934937,28.0793,5.4878,-47.2256
0.157166,0.082458,-0.928833,27.6524,5.2744,-46.3720
0.162109,0.075073,-0.923828,27.1037,5.0610,-45.3963
0.166748,0.068176,-0.919556,26.5244,4.9085,-44.3598
0.171143,0.061584,-0.915894,25.9146,4.7866,-43.3232
0.174866,0.056091,-0.913269,25.2744,4.6646,-42.2561
0.178162,0.051208,-0.911194,24.5122,4.5427,-41.0671
0.181030,0.046875,-0.909668,23.7805,4.3902,-39.8780
0.183472,0.043152,-0.908569,22.9878,4.2073,-38.6890
0.185242,0.040344,-0.908020,22.1341,3.9939,-37.3780
0.186707,0.038086,-0.907837,21.2500,3.7500,-36.0976
0.187866,0.036499,-0.907898,20.3354,3.4451,-34.8171
0.188538,0.035828,-0.908325,19.3902,3.1402,-33.5061
0.188965,0.035767,-0.908936,18.3841,2.7439,-32.1341
0.189148,0.036499,-0.909668,17.3780,2.3171,-30.8232
0.189087,0.038086,-0.910400,16.3415,1.8598,-29.5122
0.188782,0.040466,-0.911133,15.2744,1.3415,-28.1098
0.188232,0.043701,-0.911926,14.2378,0.8537,-26.7988
0.187134,0.048157,-0.912659,13.2012,0.3049,-25.5183
0.185669,0.053345,-0.913269,12.1646,-0.2439,-24.2378
0.183838,0.059204,-0.913635,11.1280,-0.8232,-22.9268
0.181580,0.066345,-0.913940,10.1829,-1.3720,-21.7378
0.179077,0.073792,-0.914062,9.2378,-1.8902,-20.6098
0.176331,0.081787,-0.914001,8.2622,-2.4695,-19.4512
0.173340,0.090149,-0.913818,7.4085,-2.9878,-18.4451
0.169983,0.099487,-0.913513,6.5549,-3.4756,-17.4695
0.166626,0.108704,-0.913147,5.7317,-3.9329,-16.5549
0.163208,0.118103,-0.912659,4.9085,-4.3902,-15.6707
0.159485,0.128235,-0.912170,4.1463,-4.7561,-14.8780
0.155823,0.137817,-0.911682,3.4146,-5.1220,-14.1463
0.152039,0.147339,-0.911255,2.6829,-5.4573,-13.4451
0.148132,0.156860,-0.910889,2.0427,-5.7012,-12.8354
0.143799,0.166626,-0.910583,1.4024,-5.9451,-12.2561
0.139465,0.175476,-0.910339,0.7927,-6.1280,-11.7378
0.135010,0.183960,-0.910217,0.2134,-6.3110,-11.2195
0.130005,0.192383,-0.910156,-0.2744,-6.4329,-10.8232
0.125122,0.199890,-0.910095,-0.7622,-6.5549,-10.4573
0.120117,0.206970,-0.910095,-1.1890,-6.6768,-10.1220
0.114929,0.213928,-0.910156,-1.5549,-6.7683,-9.8476
0.109741,0.220459,-0.910278,-1.8902,-6.8598,-9.6341
0.104858,0.226196,-0.910339,-2.1951,-6.9817,-9.4817
0.100037,0.231689,-0.910400,-2.4085,-7.1037,-9.3598
0.095093,0.237061,-0.910339,-2.5915,-7.2256,-9.2683
0.090576,0.241882,-0.910217,-2.7439,-7.3780,-9.2378
0.086060,0.246460,-0.909973,-2.8659,-7.5305,-9.2073
0.081360,0.250854,-0.909546,-2.9268,-7.6829,-9.2378
0.076843,0.254700,-0.908936,-2.9878,-7.8659,-9.2683
0.072327,0.258240,-0.908142,-3.0183,-8.0488,-9.3598
0.067749,0.261536,-0.907166,-3.0183,-8.2317,-9.4817
0.062988,0.264709,-0.906006,-3.0488,-8.4146,-9.6037
0.058533,0.267334,-0.904663,-3.0793,-8.5671,-9.7256
0.054077,0.269714,-0.903320,-3.1098,-8.7500,-9.9085
0.049500,0.272034,-0.901672,-3.1707,-8.9329,-10.0915
0.045410,0.273987,-0.900146,-3.2317,-9.0854,-10.3049
0.041504,0.275818,-0.898499,-3.3232,-9.2683,-10.5183
0.037781,0.277466,-0.896912,-3.4146,-9.4207,-10.7622
0.034119,0.278931,-0.895203,-3.5061,-9.5427,-11.0061
0.030823,0.280029,-0.893616,-3.5976,-9.6951,-11.2500
0.027649,0.280945,-0.891968,-3.7195,-9.8171,-11.5549
0.024414,0.281616,-0.890137,-3.8110,-9.9390,-11.8293
0.021484,0.282043,-0.888428,-3.9329,-10.0610,-12.1037
0.018616,0.282227,-0.886658,-4.0244,-10.1524,-12.4085
0.015625,0.282166,-0.884888,-4.0854,-10.2439,-12.6829
